host_time_ms,arduino_time_ms,ax,ay,az,gx,gy,gz
1777398939847,1571732,-0.36,0.71,0.30,-235.72,-99.61,35.89
1777398939847,1571742,-0.27,0.44,0.29,-301.76,-100.95,69.40
1777398939848,1571752,-0.20,0.05,0.22,-386.23,-109.31,92.71
1777398939848,1571762,-0.19,-0.32,0.23,-494.02,-122.56,102.17
1777398939848,1571772,-0.09,-0.67,0.40,-606.20,-138.61,98.39
1777398939849,1571782,-0.02,-1.00,0.66,-700.93,-154.79,87.89
1777398939849,1571792,0.24,-1.23,0.89,-760.07,-173.77,73.06
1777398939849,1571802,0.25,-1.64,1.19,-797.06,-190.73,41.69
1777398939849,1571812,0.61,-1.75,1.09,-800.66,-195.25,-0.73
1777398939850,1571822,0.53,-1.75,1.08,-791.56,-179.32,-52.00
1777398939850,1571832,0.29,-1.79,1.46,-735.35,-136.90,-99.55
1777398939850,1571842,0.23,-1.56,1.64,-627.44,-103.82,-140.69
1777398939850,1571852,-0.16,-0.80,1.57,-498.84,-91.06,-166.50
1777398939851,1571862,-0.35,-0.32,1.48,-383.97,-88.75,-160.16
1777398939851,1571872,-0.23,0.09,1.23,-269.29,-100.71,-127.56
1777398939851,1571882,-0.11,0.13,0.88,-129.64,-101.26,-78.37
1777398939852,1571892,-0.02,-0.00,0.69,50.11,-65.61,-19.29
1777398939852,1571902,0.08,-0.37,0.63,251.46,75.93,75.01
1777398939852,1571922,0.25,-1.00,0.83,645.39,176.70,90.52
1777398939853,1571942,0.26,-1.08,1.11,743.65,237.92,44.86
1777398939853,1571962,0.04,-0.65,1.04,741.88,243.96,1.65
1777398939853,1571972,-0.03,-0.47,0.96,717.96,237.67,-5.62
1777398939853,1571982,0.01,-0.42,0.84,675.78,227.42,-8.54
1777398939854,1571992,0.03,-0.36,0.72,615.42,215.64,-13.85
1777398939854,1572002,0.01,-0.21,0.59,530.33,197.39,-24.11
1777398939854,1572012,-0.06,0.02,0.60,416.81,164.98,-34.85
1777398939854,1572022,-0.15,0.23,0.62,276.06,111.45,-43.58
1777398939855,1572032,-0.30,0.39,0.63,124.69,51.21,-47.18
1777398939855,1572042,-0.35,0.55,0.59,-11.17,-2.75,-43.09
1777398939855,1572052,-0.36,0.57,0.59,-109.62,-34.73,-29.17
1777398939855,1572062,-0.36,0.53,0.64,-169.43,-48.71,-10.13
1777398939855,1572072,-0.31,0.37,0.70,-203.19,-54.20,8.73
1777398939856,1572082,-0.23,0.11,0.78,-228.52,-58.04,22.09
1777398939856,1572092,-0.18,-0.11,0.84,-259.28,-66.10,23.68
1777398939856,1572102,-0.16,-0.24,0.86,-297.36,-78.55,14.28
1777398939857,1572112,-0.13,-0.29,0.96,-336.55,-92.47,-0.06
1777398939857,1572122,-0.21,-0.33,1.10,-371.09,-110.17,-13.92
1777398939857,1572132,0.03,-0.39,0.86,-397.77,-126.22,-27.77
1777398939857,1572142,-0.13,-0.21,0.93,-415.65,-125.43,-39.49
1777398939858,1572152,-0.22,-0.31,0.85,-426.76,-128.66,-38.27
1777398939858,1572162,-0.17,-0.21,0.87,-425.17,-120.48,-36.50
1777398939858,1572172,-0.16,-0.36,0.87,-415.65,-111.63,-28.38
1777398939858,1572182,-0.06,-0.51,0.99,-388.67,-96.86,-27.28
1777398939859,1572192,0.04,-0.60,1.18,-338.68,-79.47,-34.85
1777398939859,1572202,0.05,-0.58,1.30,-266.54,-62.62,-47.55
1777398939859,1572212,-0.02,-0.46,1.27,-185.67,-50.96,-56.52
1777398939859,1572222,-0.07,-0.42,1.14,-108.28,-42.97,-56.46
1777398939860,1572232,-0.14,-0.45,0.96,-39.86,-35.52,-50.54
1777398939860,1572242,-0.12,-0.50,0.81,21.36,-22.46,-33.87
1777398939860,1572262,-0.06,-0.54,0.62,152.47,45.10,-21.30
1777398939860,1572282,-0.03,-0.64,0.75,193.97,77.21,-12.82
1777398939860,1572302,0.08,-0.55,0.91,253.17,65.37,-31.98
1777398939861,1572322,0.13,-0.33,1.04,284.73,51.33,-49.62
1777398939861,1572332,0.03,-0.27,1.03,265.14,48.46,-57.86
1777398939861,1572342,-0.03,-0.27,1.00,226.26,47.06,-65.06
1777398939861,1572352,-0.04,-0.34,0.99,178.65,51.27,-64.70
1777398939861,1572362,-0.01,-0.40,0.98,132.32,58.90,-56.88
1777398939862,1572372,0.02,-0.50,1.12,98.14,66.35,-45.84
1777398939862,1572382,-0.00,-0.40,1.14,95.95,61.83,-41.56
1777398939862,1572392,-0.02,-0.21,1.03,112.49,40.71,-42.11
1777398939862,1572402,-0.03,-0.18,0.99,125.73,23.62,-44.25
1777398939862,1572412,-0.06,-0.15,1.04,127.20,16.17,-56.15
1777398939863,1572422,-0.11,0.09,1.55,121.83,6.04,-69.82
1777398939863,1572432,0.07,0.03,1.11,73.00,-31.98,-74.95
1777398939863,1572442,-0.24,-0.08,1.01,23.80,-19.71,-74.34
1777398939863,1572452,-0.07,-0.05,0.95,-0.98,-2.38,-78.55
1777398939863,1572462,-0.12,-0.01,0.97,2.93,-12.57,-84.23
1777398939864,1572472,-0.19,-0.04,1.00,15.81,-22.22,-78.67
1777398939864,1572482,-0.14,-0.06,0.98,23.07,-29.48,-67.99
1777398939864,1572492,-0.11,-0.09,0.97,22.89,-29.48,-55.60
1777398939864,1572502,-0.09,-0.15,0.99,19.59,-24.35,-45.72
1777398939864,1572512,-0.11,-0.18,1.01,14.04,-18.19,-39.67
1777398939865,1572522,-0.07,-0.19,0.99,7.14,-13.00,-38.70
1777398939865,1572532,0.02,-0.18,0.98,2.38,-7.08,-42.18
1777398939865,1572542,0.00,-0.17,1.01,-0.85,-2.81,-45.65
1777398939865,1572552,-0.02,-0.10,1.00,1.40,-2.87,-46.63
1777398939865,1572562,-0.08,-0.04,1.00,5.49,-4.52,-44.86
1777398939866,1572572,-0.09,0.03,0.98,10.25,-6.04,-42.60
1777398939866,1572582,-0.08,0.04,0.97,6.84,-8.06,-40.53
1777398939866,1572592,-0.16,-0.06,0.96,4.52,-9.77,-41.63
1777398939866,1572612,-0.07,-0.05,0.98,10.19,-12.82,-35.89
1777398939866,1572632,-0.01,-0.10,0.99,15.20,-28.20,-28.63
1777398939867,1572652,-0.01,-0.11,1.02,30.03,-49.50,-23.07
1777398939867,1572662,-0.02,-0.06,1.02,38.02,-54.32,-21.24
1777398939867,1572672,-0.01,-0.06,1.02,39.61,-52.92,-20.63
1777398939868,1572682,0.04,-0.07,1.00,37.90,-49.01,-22.46
1777398939868,1572692,0.08,-0.10,0.99,35.77,-43.21,-25.94
1777398939868,1572702,0.09,-0.09,1.00,33.69,-37.54,-28.63
1777398939868,1572712,0.07,-0.09,1.01,31.74,-33.45,-28.14
1777398939868,1572722,0.05,-0.06,1.03,28.93,-30.64,-24.90
1777398939868,1572732,0.06,-0.04,1.03,25.82,-27.71,-19.90
1777398939869,1572742,0.07,0.01,1.01,21.06,-22.28,-15.14
1777398939869,1572752,0.06,0.03,1.01,15.14,-15.32,-12.45
1777398939869,1572762,0.04,0.04,1.00,11.41,-10.13,-12.51
1777398939869,1572772,-0.00,0.12,0.92,9.16,-9.09,-13.55
1777398939869,1572782,0.02,0.07,0.95,1.40,-11.84,-13.18
1777398939869,1572792,0.07,0.02,1.00,2.50,-24.29,-13.06
1777398939870,1572802,-0.04,-0.20,1.24,-2.99,-12.02,-10.68
1777398939870,1572812,0.10,-0.09,1.01,5.55,-2.56,-8.79
1777398939870,1572822,0.09,-0.07,1.01,4.82,1.71,-7.20
1777398939870,1572832,0.12,-0.04,1.00,6.04,3.11,-8.42
1777398939870,1572842,0.09,-0.04,0.97,7.81,3.42,-6.96
1777398939870,1572852,0.04,-0.05,0.98,9.03,6.04,-5.80
1777398939871,1572862,0.01,-0.06,1.00,14.95,9.77,-5.00
1777398939871,1572872,0.01,-0.02,0.99,19.47,12.39,-4.21
1777398939871,1572882,0.01,-0.01,0.98,21.24,13.67,-3.11
1777398939871,1572892,0.18,-0.12,0.55,35.40,24.41,-1.89
1777398939871,1572902,0.09,0.07,0.51,89.54,75.93,-0.06
1777398939871,1572912,-0.03,0.12,0.51,9.77,113.89,-5.31
1777398939872,1572922,-0.18,-0.33,1.32,-210.02,25.02,-18.31
1777398939872,1572932,0.04,0.29,2.05,-8.67,-64.70,4.33
1777398939872,1572952,-0.02,-0.02,0.99,-7.75,-12.02,35.58
1777398939872,1572972,-0.03,0.03,0.99,5.49,-3.23,23.25
1777398939872,1572992,-0.01,0.01,1.00,-1.10,-6.35,8.00
1777398939872,1573012,0.00,-0.03,1.01,-4.94,-7.57,1.95
1777398939873,1573022,-0.00,-0.01,1.01,-0.85,-5.98,0.24
1777398939873,1573032,-0.00,-0.01,1.00,1.71,-4.94,-1.65
1777398939873,1573042,-0.00,-0.01,1.00,2.14,-4.70,-3.05
1777398939873,1573052,-0.00,-0.01,1.00,2.32,-4.58,-3.91
1777398939873,1573062,-0.00,-0.01,1.01,2.50,-4.64,-4.64
1777398939873,1573072,-0.00,-0.01,1.00,2.69,-4.58,-4.70
1777398939874,1573082,-0.00,-0.01,1.01,2.93,-4.46,-4.58
1777398939874,1573092,-0.00,-0.01,1.01,3.60,-4.15,-4.58
1777398939874,1573102,-0.00,-0.01,1.00,4.21,-3.97,-4.82
1777398939874,1573112,-0.00,-0.01,1.01,4.70,-3.78,-4.70
1777398939874,1573122,-0.00,-0.01,1.01,5.49,-3.48,-4.70
1777398939874,1573132,-0.00,-0.00,1.00,5.49,-3.42,-4.76
1777398939875,1573142,-0.01,0.00,1.00,4.33,-3.97,-4.76
1777398939875,1573152,-0.01,-0.00,1.00,1.95,-5.00,-4.52
1777398939875,1573162,-0.02,0.02,0.99,-0.85,-6.04,-4.21
1777398939875,1573172,-0.00,-0.02,1.02,-5.86,-7.93,-3.23
1777398939875,1573182,-0.00,-0.00,1.00,1.46,-5.19,-3.66
1777398939876,1573192,-0.00,-0.01,1.00,2.32,-4.76,-4.88
1777398939876,1573202,-0.00,-0.01,1.01,2.14,-4.64,-5.25
1777398939876,1573212,-0.00,-0.01,1.00,2.38,-4.64,-5.13
1777398939876,1573222,-0.00,-0.01,1.00,2.50,-4.70,-4.82
1777398939876,1573232,-0.00,-0.01,1.00,2.69,-4.64,-4.58
1777398939876,1573242,0.00,-0.02,1.00,2.81,-4.64,-4.21
1777398939877,1573252,0.02,-0.03,1.01,2.93,-4.58,-5.13
1777398939877,1573262,0.02,-0.04,1.01,3.23,-4.33,-6.59
1777398939877,1573272,0.00,-0.03,1.01,4.52,-3.72,-7.39
1777398939877,1573282,-0.00,-0.03,1.00,6.04,-3.17,-6.16
1777398939877,1573302,-0.01,-0.01,1.00,3.85,-4.27,-1.28
1777398939877,1573322,0.00,-0.02,1.00,2.50,-4.70,3.97
1777398939878,1573342,0.01,0.01,1.01,1.65,-4.88,5.25
1777398939878,1573352,0.00,-0.00,1.01,2.50,-4.70,6.10
1777398939878,1573362,-0.01,0.04,1.00,2.44,-4.88,5.92
1777398939878,1573372,-0.08,0.07,1.00,0.55,-5.62,7.93
1777398939878,1573382,-0.01,0.01,1.00,-0.37,-5.92,7.93
1777398939878,1573392,-0.02,0.03,1.01,-1.04,-6.10,0.18
1777398939878,1573402,-0.03,0.04,1.00,0.67,-5.37,-1.89
1777398939879,1573412,-0.01,-0.00,1.01,2.32,-4.82,0.06
1777398939879,1573422,0.01,-0.03,1.00,3.30,-4.39,-1.83
1777398939879,1573432,0.04,-0.07,1.01,2.87,-4.46,-2.93
1777398939879,1573442,0.01,-0.03,1.01,3.85,-3.97,-4.64
1777398939879,1573452,-0.01,-0.00,1.00,5.68,-3.17,-5.37
1777398939879,1573462,-0.00,-0.00,1.00,4.76,-3.78,-4.82
1777398939879,1573472,-0.00,-0.01,1.00,3.97,-4.21,-4.33
1777398939880,1573482,-0.01,-0.00,1.00,4.58,-3.97,-4.39
1777398939880,1573492,-0.00,-0.01,1.00,3.54,-4.33,-4.46
1777398939880,1573502,-0.00,-0.00,1.00,2.87,-4.52,-4.58
1777398939880,1573512,-0.00,-0.00,1.01,3.05,-4.39,-4.70
1777398939880,1573522,-0.00,-0.01,1.00,2.75,-4.52,-4.70
1777398939880,1573532,-0.00,-0.01,1.01,2.93,-4.46,-4.82
1777398939880,1573542,-0.01,0.00,1.00,3.85,-4.09,-4.82
1777398939881,1573552,-0.00,-0.01,1.01,2.44,-4.70,-4.76
1777398939881,1573562,-0.01,-0.00,1.00,2.62,-4.64,-4.88
1777398939881,1573572,-0.02,-0.02,1.00,2.44,-4.64,-5.25
1777398939881,1573582,-0.01,-0.02,1.00,2.20,-4.76,-5.00
1777398939881,1573592,-0.00,-0.01,1.00,2.20,-4.76,-4.15
1777398939881,1573602,-0.00,-0.01,1.00,2.20,-4.82,-3.48
1777398939882,1573612,-0.01,-0.01,1.00,2.44,-4.70,-2.69
1777398939882,1573622,-0.01,-0.04,1.00,2.14,-4.88,-0.37
1777398939882,1573642,0.00,-0.04,1.01,0.67,-5.43,3.66
1777398939882,1573662,-0.01,-0.02,1.00,0.55,-5.43,5.55
1777398939882,1573682,0.01,-0.04,1.00,0.06,-5.68,3.85
1777398939882,1573702,0.02,-0.09,1.01,0.98,-5.37,2.56
1777398939882,1573712,-0.00,-0.02,0.98,4.88,-3.91,2.08
1777398939883,1573722,-0.02,-0.06,1.01,-1.22,-5.86,5.92
1777398939883,1573732,-0.02,-0.01,1.01,0.61,-5.80,6.23
1777398939883,1573742,-0.04,0.04,1.00,2.56,-4.82,9.58
1777398939883,1573752,-0.00,0.00,1.00,0.79,-5.62,11.90
1777398939883,1573762,0.00,0.05,1.01,2.56,-4.94,11.47
1777398939883,1573772,-0.02,0.06,1.02,1.71,-4.94,13.12
1777398939884,1573782,-0.01,0.08,1.00,1.77,-5.19,12.33
1777398939884,1573792,0.00,0.04,1.01,1.89,-4.94,10.74
1777398939884,1573802,0.01,0.02,1.00,3.23,-4.58,6.23
1777398939884,1573812,-0.00,0.03,0.97,3.72,-4.27,-0.61
1777398939884,1573822,-0.01,-0.06,1.01,0.55,-5.19,-4.76
1777398939884,1573832,-0.01,0.01,1.00,2.99,-4.64,-6.53
1777398939884,1573842,-0.00,0.02,1.01,2.50,-4.94,-3.85
1777398939884,1573852,0.01,0.00,1.04,1.16,-5.13,-2.14
1777398939885,1573862,0.00,0.01,1.00,1.65,-5.37,-2.01
1777398939885,1573872,-0.00,0.01,1.01,2.50,-5.07,-0.79
1777398939885,1573882,0.00,0.01,1.00,2.93,-4.82,0.92
1777398939885,1573892,-0.01,-0.01,1.01,3.54,-4.39,2.14
1777398939885,1573902,-0.02,-0.04,1.01,3.85,-4.52,2.32
1777398939885,1573912,-0.01,-0.04,1.01,2.93,-5.68,1.89
1777398939885,1573922,0.00,-0.03,1.01,2.01,-6.65,1.59
1777398939886,1573932,0.01,-0.04,1.00,3.42,-6.23,-0.49
1777398939886,1573942,0.03,-0.02,1.01,4.09,-5.43,-3.17
1777398939886,1573952,0.02,-0.02,1.00,3.30,-5.80,-5.37
1777398939886,1573962,-0.01,0.01,1.00,3.48,-5.55,-7.75
1777398939886,1573972,-0.02,0.02,0.99,2.62,-5.74,-7.93
1777398939886,1573992,0.01,-0.00,0.99,2.32,-3.60,-8.73
1777398939886,1574012,0.10,-0.25,1.00,3.23,-1.77,-18.01
1777398939886,1574032,0.10,-0.31,1.22,2.81,-1.22,-33.81
1777398939887,1574042,0.02,-0.10,0.97,26.00,7.02,-37.66
1777398939887,1574052,-0.04,0.17,1.02,11.05,1.77,-35.40
1777398939887,1574062,-0.07,0.25,1.03,-8.67,-11.78,-13.43
1777398939887,1574072,-0.07,0.16,1.02,-18.07,-13.92,7.63
1777398939887,1574082,-0.09,0.19,1.00,-1.46,-6.53,21.79
1777398939887,1574092,-0.09,0.17,1.02,1.65,-5.07,30.27
1777398939888,1574102,-0.10,0.14,1.00,2.32,-4.76,36.56
1777398939888,1574112,-0.06,0.03,1.00,3.17,-4.39,41.38
1777398939888,1574122,-0.01,0.00,1.00,2.75,-4.58,43.03
1777398939888,1574132,0.00,-0.01,1.00,3.05,-4.64,46.57
1777398939888,1574142,-0.00,-0.03,1.01,3.66,-4.39,50.17
1777398939888,1574152,-0.01,-0.01,1.00,3.23,-4.52,49.80
1777398939888,1574162,-0.00,-0.01,1.00,2.62,-4.82,48.95
1777398939888,1574172,-0.01,-0.00,1.00,1.04,-5.37,47.85
1777398939889,1574182,0.00,-0.00,1.00,0.06,-6.04,45.47
1777398939889,1574192,-0.00,-0.00,1.00,0.06,-6.04,40.47
1777398939889,1574202,-0.00,-0.00,1.01,0.61,-5.68,34.06
1777398939889,1574212,-0.00,0.00,1.00,1.65,-4.94,27.40
1777398939889,1574222,-0.00,0.00,1.00,2.56,-4.76,21.18
1777398939889,1574232,-0.00,-0.00,1.00,2.44,-4.82,16.72
1777398939889,1574242,-0.00,0.00,1.00,2.32,-4.76,12.21
1777398939890,1574252,-0.00,-0.00,1.00,1.89,-4.94,7.39
1777398939890,1574262,-0.00,-0.00,1.00,2.20,-4.76,2.75
1777398939890,1574272,-0.00,-0.00,1.00,2.44,-4.70,-1.59
1777398939890,1574282,-0.00,-0.01,1.01,2.32,-4.70,-4.88
1777398939890,1574292,-0.00,-0.01,1.00,2.50,-4.58,-5.07
1777398939890,1574302,-0.00,-0.01,1.00,2.50,-4.64,-5.00
1777398939890,1574312,-0.00,-0.01,1.00,2.50,-4.64,-4.70
1777398939890,1574332,-0.00,-0.01,1.00,2.62,-4.76,-4.46
1777398939891,1574352,-0.00,-0.01,1.00,2.32,-4.76,-4.76
1777398939891,1574372,-0.00,-0.01,1.00,2.20,-4.70,-4.94
1777398939891,1574392,-0.00,-0.01,1.00,2.38,-4.76,-4.88
1777398939891,1574402,-0.00,-0.01,1.00,2.32,-4.64,-5.07
1777398939891,1574412,0.00,-0.01,1.00,2.56,-4.70,-4.70
1777398939891,1574422,0.01,0.02,1.01,5.55,-2.93,-2.69
1777398939891,1574432,0.01,0.23,0.93,19.65,4.27,17.46
1777398939892,1574442,0.00,0.14,0.94,17.46,6.53,60.73
1777398939892,1574452,0.01,-0.01,1.00,0.00,-5.92,100.16
1777398939892,1574462,0.01,-0.18,1.01,-5.31,-10.86,116.21
1777398939892,1574472,0.02,-0.22,1.02,-5.31,-10.31,106.69
1777398939892,1574482,-0.01,-0.13,1.01,-2.20,-7.51,81.42
1777398939892,1574492,-0.01,-0.04,0.99,4.52,-3.78,55.60
1777398939892,1574502,-0.00,-0.03,1.01,1.28,-5.07,34.30
1777398939893,1574512,0.01,-0.00,1.00,1.10,-5.19,12.76
1777398939893,1574522,-0.04,0.14,1.03,1.53,-5.07,-4.46
1777398939893,1574532,-0.04,0.09,0.99,3.54,-4.21,-3.60
1777398939893,1574542,-0.04,0.05,1.00,-0.73,-6.16,-0.12
1777398939893,1574552,-0.01,0.01,1.00,-3.17,-7.02,0.00
1777398939893,1574562,-0.00,-0.01,1.00,-5.86,-8.30,0.31
1777398939893,1574572,0.01,-0.03,1.00,-5.19,-8.12,0.49
1777398939893,1574582,0.00,-0.02,1.00,1.46,-5.25,-3.42
1777398939894,1574592,0.01,-0.04,1.00,2.44,-4.70,-6.35
1777398939894,1574602,0.02,-0.05,1.00,2.56,-4.58,-9.89
1777398939894,1574612,-0.05,0.10,1.01,3.97,-3.66,-12.70
1777398939894,1574622,-0.01,-0.01,1.00,2.69,-4.82,-4.27
1777398939894,1574632,0.00,-0.01,1.00,0.18,-5.74,1.53
1777398939894,1574642,-0.02,0.01,1.01,2.50,-4.58,-1.89
1777398939894,1574652,-0.00,-0.01,1.01,2.26,-4.82,-4.46
1777398939894,1574662,-0.00,-0.01,1.00,2.32,-4.94,-2.20
1777398939894,1574682,-0.00,-0.01,1.00,2.62,-4.70,-3.30
1777398939895,1574702,-0.00,-0.01,1.00,2.32,-4.82,-4.82
1777398939895,1574722,-0.00,-0.01,1.00,2.44,-4.64,-2.26
1777398939895,1574732,-0.00,-0.01,1.00,2.56,-4.58,-0.67
1777398939895,1574742,-0.00,-0.01,1.00,2.38,-4.82,-1.10
1777398939895,1574752,-0.00,-0.01,1.00,2.14,-4.82,-0.18
1777398939895,1574762,-0.00,-0.01,1.00,2.26,-4.88,2.26
1777398939895,1574772,-0.00,-0.01,1.00,2.62,-4.88,4.94
1777398939895,1574782,-0.00,-0.01,1.00,2.26,-4.82,5.00
1777398939896,1574792,-0.00,-0.00,1.00,2.20,-4.82,3.66
1777398939896,1574802,-0.00,-0.00,1.00,2.50,-4.70,2.75
1777398939896,1574812,-0.00,-0.01,1.00,2.62,-4.76,1.77
1777398939896,1574822,-0.00,-0.01,1.00,2.50,-4.70,0.61
1777398939896,1574832,-0.00,-0.00,1.00,2.32,-4.70,-0.92
1777398939896,1574842,-0.00,-0.00,1.00,2.50,-4.70,-2.81
1777398939896,1574852,-0.00,-0.01,1.00,2.56,-4.70,-3.97
1777398939896,1574862,-0.00,-0.01,1.00,2.50,-4.64,-4.58
1777398939897,1574872,-0.00,-0.01,1.00,2.50,-4.64,-4.82
1777398939897,1574882,-0.00,-0.01,1.00,2.50,-4.76,-4.82
1777398939897,1574892,-0.00,-0.01,1.01,2.50,-4.70,-4.88
1777398939897,1574902,-0.00,-0.01,1.01,2.50,-4.64,-4.88
1777398939897,1574912,-0.00,-0.00,1.00,2.38,-4.76,-4.82
1777398939897,1574922,-0.00,-0.01,1.00,2.38,-4.70,-4.94
1777398939897,1574932,-0.00,-0.01,1.00,2.38,-4.70,-4.82
1777398939898,1574942,-0.00,-0.01,1.00,2.44,-4.70,-4.64
1777398939898,1574952,-0.00,-0.01,1.00,2.44,-4.76,-4.39
1777398939898,1574962,-0.00,-0.01,1.00,2.44,-4.70,-4.70
1777398939898,1574972,-0.00,-0.01,1.00,2.38,-4.70,-4.88
1777398939898,1574982,-0.00,-0.01,1.00,2.32,-4.64,-5.07
1777398939898,1574992,-0.00,-0.01,1.00,2.32,-4.64,-5.13
1777398939898,1575002,-0.00,-0.01,1.00,2.32,-4.52,-5.25
1777398939898,1575022,-0.00,-0.01,1.00,2.56,-4.52,-5.07
1777398939899,1575042,-0.00,-0.01,1.00,2.87,-4.70,-4.27
1777398939899,1575062,-0.00,-0.01,1.00,2.20,-4.70,-5.37
1777398939899,1575082,-0.00,-0.01,1.00,2.26,-4.70,-5.13
1777398939899,1575092,-0.00,-0.01,1.01,2.44,-4.64,-4.94
1777398939899,1575102,-0.00,-0.00,1.00,2.56,-4.70,-4.76
1777398939899,1575112,-0.00,-0.01,1.01,2.32,-4.76,-4.82
1777398939899,1575122,-0.00,-0.01,1.00,2.32,-4.70,-4.82
1777398939899,1575132,-0.00,-0.01,1.00,2.26,-4.76,-4.94
1777398939900,1575142,-0.00,-0.01,1.00,2.26,-4.70,-4.94
1777398939900,1575152,-0.00,-0.01,1.00,2.38,-4.76,-4.82
1777398939900,1575162,-0.00,-0.01,1.00,2.38,-4.70,-4.76
1777398939900,1575172,-0.00,-0.01,1.00,2.44,-4.64,-4.58
1777398939900,1575182,-0.00,-0.01,1.00,2.69,-4.64,-4.33
1777398939900,1575192,-0.00,-0.01,1.00,2.69,-4.70,-4.27
1777398939900,1575202,-0.00,-0.01,1.00,2.75,-4.70,-4.21
1777398939901,1575212,-0.00,-0.00,1.01,2.56,-4.64,-4.64
1777398939901,1575222,-0.00,-0.01,1.00,2.32,-4.64,-5.00
1777398939901,1575232,-0.00,-0.01,1.00,2.50,-4.58,-4.64
1777398939901,1575242,-0.00,-0.01,1.00,2.69,-4.64,-4.33
1777398939901,1575252,-0.00,-0.01,1.01,2.62,-4.76,-4.52
1777398939901,1575262,-0.00,-0.00,0.99,2.62,-4.70,-4.76
1777398939901,1575272,-0.00,-0.01,1.01,2.62,-4.70,-4.76
1777398939901,1575282,-0.00,-0.01,1.00,2.75,-4.58,-4.70
1777398939902,1575292,-0.00,-0.00,1.01,2.50,-4.64,-4.70
1777398939902,1575302,-0.00,-0.00,1.00,2.50,-4.58,-4.70
1777398939902,1575312,-0.00,-0.01,1.00,2.38,-4.70,-4.94
1777398939902,1575322,-0.00,-0.01,1.00,2.20,-4.64,-5.25
1777398939902,1575332,-0.00,-0.01,0.99,2.32,-4.58,-5.07
1777398939902,1575342,-0.00,-0.01,1.01,2.44,-4.70,-4.76
1777398939902,1575352,-0.00,-0.01,0.99,2.50,-4.64,-5.19
1777398939902,1575372,-0.00,-0.01,1.00,2.44,-4.70,-4.70
1777398939902,1575392,-0.00,-0.00,1.00,2.50,-4.64,-4.76
1777398939903,1575412,-0.00,-0.01,1.00,2.32,-4.52,-5.31
1777398939903,1575422,-0.00,-0.01,1.00,2.69,-4.46,-5.07
1777398939903,1575432,-0.00,-0.01,1.00,3.11,-4.39,-4.76
1777398939903,1575442,-0.00,-0.01,1.00,3.17,-4.39,-4.76
1777398939903,1575452,-0.00,-0.01,1.00,3.54,-4.27,-4.76
1777398939903,1575462,-0.00,-0.01,1.00,4.03,-4.09,-4.58
1777398939903,1575472,-0.00,-0.01,1.00,4.58,-3.97,-4.27
1777398939903,1575482,-0.00,-0.00,1.00,4.64,-3.78,-4.76
1777398939904,1575492,-0.00,-0.00,1.00,4.46,-3.72,-5.31
1777398939904,1575502,-0.00,-0.00,1.01,4.27,-3.85,-5.13
1777398939904,1575512,-0.00,-0.00,1.00,4.03,-4.03,-4.88
1777398939904,1575522,-0.00,-0.00,1.00,3.42,-4.21,-4.88
1777398939904,1575532,-0.00,-0.00,1.00,2.87,-4.39,-4.94
1777398939904,1575542,-0.00,-0.00,1.00,2.50,-4.64,-4.70
1777398939904,1575552,-0.00,-0.00,1.00,2.08,-4.88,-4.33
1777398939904,1575562,-0.00,-0.00,1.00,1.71,-4.88,-4.64
1777398939904,1575572,-0.00,-0.00,1.00,1.59,-4.94,-5.19
1777398939905,1575582,-0.00,-0.00,1.00,1.71,-4.88,-5.19
1777398939905,1575592,-0.00,-0.00,1.00,1.95,-4.82,-5.13
1777398939905,1575602,-0.00,-0.01,1.00,2.20,-4.70,-4.94
1777398939905,1575612,-0.00,-0.00,1.00,2.32,-4.70,-4.58
1777398939905,1575622,-0.00,-0.01,1.00,2.56,-4.58,-4.46
1777398939905,1575632,-0.01,-0.01,1.00,3.05,-4.46,-4.33
1777398939905,1575642,-0.00,-0.00,1.00,3.17,-4.46,-4.70
1777398939905,1575652,-0.00,-0.00,1.00,3.05,-4.46,-4.88
1777398939906,1575662,-0.00,-0.00,1.00,2.87,-4.33,-5.00
1777398939906,1575672,-0.00,-0.00,1.00,2.81,-4.46,-5.19
1777398939906,1575682,-0.00,-0.00,1.00,2.62,-4.52,-5.25
1777398939906,1575692,-0.00,-0.00,1.00,2.38,-4.58,-4.82
1777398939906,1575712,-0.00,-0.00,1.00,2.26,-4.82,-4.58
1777398939906,1575732,-0.00,-0.00,1.00,2.26,-4.82,-4.88
1777398939906,1575752,-0.00,-0.00,1.00,2.44,-4.76,-4.58
1777398939906,1575772,-0.00,-0.00,1.00,2.56,-4.70,-4.52
1777398939907,1575782,-0.00,-0.00,1.00,2.44,-4.64,-4.82
1777398939907,1575792,-0.00,-0.00,1.00,2.56,-4.64,-4.76
1777398939907,1575802,-0.00,-0.00,1.00,2.56,-4.64,-4.52
1777398939907,1575812,-0.00,-0.00,1.00,2.75,-4.64,-4.39
1777398939907,1575822,-0.00,-0.01,1.00,2.75,-4.58,-4.39
1777398939907,1575832,-0.00,-0.00,1.00,2.75,-4.52,-4.58
1777398939907,1575842,-0.00,-0.00,1.00,2.62,-4.58,-4.70
1777398939907,1575852,-0.00,-0.00,1.00,2.50,-4.64,-4.88
1777398939908,1575862,-0.00,-0.00,1.00,2.32,-4.76,-5.07
1777398939908,1575872,-0.01,-0.00,1.00,2.38,-4.76,-4.82
1777398939908,1575882,-0.00,-0.01,1.00,2.44,-4.76,-4.58
1777398939908,1575892,-0.03,0.05,1.00,3.42,-3.78,-4.21
1777398939908,1575902,-0.02,-0.05,1.00,8.67,-1.53,9.34
1777398939908,1575912,0.08,-0.08,0.99,1.40,-6.16,11.41
1777398939908,1575922,0.02,-0.07,1.00,-10.86,-10.19,-13.49
1777398939908,1575932,-0.01,0.01,1.01,-2.14,-6.16,-20.94
1777398939909,1575942,-0.00,-0.00,1.01,8.85,-1.65,-17.52
1777398939909,1575952,-0.05,0.08,1.00,10.68,-1.40,-15.99
1777398939909,1575962,-0.02,0.02,1.00,6.53,-2.99,-7.57
1777398939909,1575972,-0.01,-0.00,1.00,3.11,-4.27,-4.82
1777398939909,1575982,-0.00,-0.00,1.00,1.77,-4.88,-5.37
1777398939909,1575992,-0.01,0.00,1.00,0.92,-5.37,-5.13
1777398939909,1576002,-0.00,-0.00,1.00,-0.31,-5.80,-4.82
1777398939909,1576012,-0.00,-0.01,1.00,-0.85,-6.04,-5.00
1777398939909,1576022,-0.00,-0.01,1.00,-0.43,-5.74,-5.31
1777398939910,1576032,-0.00,-0.01,1.00,0.31,-5.43,-5.37
1777398939910,1576042,-0.00,-0.01,1.00,1.53,-4.88,-5.37
1777398939910,1576062,-0.00,-0.00,1.00,3.85,-4.03,-5.00
1777398939910,1576082,-0.00,-0.00,1.00,3.11,-4.39,-4.94
1777398939910,1576102,-0.01,0.00,1.02,2.69,-4.64,-5.19
1777398939910,1576112,-0.00,-0.00,1.00,1.89,-4.82,-5.13
1777398939910,1576122,-0.00,-0.01,0.99,2.87,-4.39,-5.00
1777398939910,1576132,-0.01,-0.00,1.00,3.05,-4.39,-4.88
1777398939910,1576142,0.01,-0.03,1.01,2.75,-4.58,-4.70
1777398939911,1576152,0.13,-0.23,1.00,9.83,-1.53,-4.52
1777398939911,1576162,0.15,-0.26,0.99,10.99,0.31,-6.90
1777398939911,1576172,0.12,-0.24,1.01,4.88,-2.50,-4.09
1777398939911,1576182,0.09,-0.28,0.96,9.46,0.85,4.21
1777398939911,1576192,0.09,-0.32,1.04,1.28,-5.37,19.29
1777398939911,1576202,0.09,-0.37,1.00,-5.43,-10.25,48.83
1777398939911,1576212,0.05,-0.45,1.04,-0.67,-6.84,75.87
1777398939911,1576222,-0.18,-0.57,1.21,18.55,6.10,108.89
1777398939911,1576232,-0.37,1.01,0.52,33.45,6.59,156.68
1777398939912,1576242,0.03,0.90,0.72,3.78,25.76,88.62
1777398939912,1576252,-0.37,-0.66,1.24,-45.17,79.04,70.62
1777398939912,1576262,-0.26,-0.47,0.87,-28.02,86.98,103.76
1777398939912,1576272,-0.13,0.03,1.16,-17.76,64.51,118.16
1777398939912,1576282,0.29,0.26,1.40,-51.27,67.87,115.17
1777398939912,1576292,0.52,0.19,1.40,-128.36,62.87,97.17
1777398939912,1576302,0.38,0.09,1.31,-216.92,45.53,88.20
1777398939912,1576312,0.15,-0.28,1.11,-303.34,27.59,103.64
1777398939913,1576322,-0.01,-0.78,0.81,-352.23,19.59,131.04
1777398939913,1576332,-0.17,-1.15,0.71,-362.12,20.26,136.41
1777398939913,1576342,-0.31,-1.30,0.65,-362.73,18.86,115.66
1777398939913,1576352,-0.25,-1.19,0.61,-348.33,15.50,86.24
1777398939913,1576362,-0.27,-0.93,0.59,-335.69,16.05,66.04
1777398939913,1576372,-0.20,-0.88,0.59,-343.20,26.79,60.18
1777398939913,1576382,-0.06,-0.95,0.60,-357.97,47.55,25.82
1777398939913,1576402,-0.06,-0.91,0.92,-281.86,30.46,12.88
1777398939913,1576422,-0.04,-0.80,0.80,-233.15,-12.57,36.99
1777398939914,1576442,-0.12,-0.93,0.72,-334.35,5.86,-25.27
1777398939914,1576462,-0.17,-0.87,0.45,-361.27,-6.47,-70.86
1777398939914,1576472,-0.20,-1.00,0.33,-357.97,-16.97,-84.47
1777398939914,1576482,-0.05,-1.08,0.21,-318.97,-37.84,-98.02
1777398939914,1576492,0.13,-1.13,0.19,-262.88,-50.23,-112.37
1777398939914,1576502,0.26,-1.03,0.27,-219.18,-51.27,-125.49
1777398939914,1576512,0.31,-1.05,0.38,-192.38,-54.50,-126.65
1777398939914,1576522,0.29,-1.06,0.45,-169.74,-60.00,-117.61
1777398939915,1576532,0.11,-0.93,0.43,-145.32,-70.01,-101.75
1777398939915,1576542,-0.14,-0.76,0.37,-126.83,-82.46,-80.32
1777398939915,1576552,-0.23,-0.66,0.27,-122.86,-99.61,-55.97
1777398939915,1576562,-0.21,-0.63,0.22,-141.72,-122.38,-36.38
1777398939915,1576572,-0.09,-0.76,0.12,-182.68,-137.02,-31.43
1777398939915,1576582,-0.05,-1.08,-0.21,-214.90,-162.54,-36.38
1777398939915,1576592,-0.19,-1.19,-0.39,-209.17,-185.67,-59.57
1777398939915,1576602,-0.34,-1.11,-0.36,-192.14,-193.42,-96.25
1777398939916,1576612,-0.36,-1.01,-0.35,-178.41,-198.12,-131.10
1777398939916,1576622,-0.29,-0.88,-0.27,-154.54,-197.88,-153.99
1777398939916,1576632,-0.23,-0.73,-0.15,-126.59,-191.10,-160.10
1777398939916,1576642,-0.18,-0.64,-0.13,-103.45,-187.56,-147.52
1777398939916,1576652,-0.08,-0.65,-0.14,-80.99,-183.84,-116.88
1777398939916,1576662,0.05,-0.72,-0.22,-51.03,-180.05,-79.53
1777398939916,1576672,0.17,-0.71,-0.32,-19.90,-173.77,-51.03
1777398939916,1576682,0.22,-0.69,-0.34,-14.04,-161.80,-35.58
1777398939917,1576692,0.14,-0.81,-0.32,-41.08,-142.03,-30.82
1777398939917,1576702,0.02,-0.88,-0.38,-74.89,-121.77,-28.99
1777398939917,1576712,-0.20,-0.82,-0.45,-99.24,-104.68,-24.11
1777398939917,1576722,0.50,-0.42,-0.79,-135.93,-76.35,-7.93
1777398939917,1576732,0.45,-1.02,0.49,-182.80,-35.95,67.75
1777398939917,1576752,0.43,-1.18,-0.61,-134.09,-10.86,2.75
1777398939917,1576772,0.18,-1.22,-0.24,-97.84,-19.59,-82.52
1777398939918,1576792,-0.10,-0.92,-0.20,-78.25,-33.94,-108.64
1777398939918,1576802,-0.18,-0.84,-0.16,-68.48,-33.39,-82.34
1777398939918,1576812,-0.15,-0.72,-0.23,-40.41,-31.07,-39.86
1777398939918,1576822,-0.02,-0.60,-0.31,-45.59,-44.74,-1.28
1777398939918,1576832,0.34,-0.61,-0.24,-72.81,-74.04,29.60
1777398939918,1576842,0.71,-0.80,-0.50,-55.36,-41.32,54.26
1777398939918,1576852,0.74,-0.91,-0.55,9.95,32.23,83.62
1777398939918,1576862,0.61,-1.05,-0.48,-3.23,43.09,83.07
1777398939919,1576872,0.38,-1.20,-0.49,-16.24,54.32,73.18
1777398939919,1576882,0.24,-1.29,-0.55,-30.15,54.20,54.32
1777398939919,1576892,0.07,-1.28,-0.41,-39.25,48.83,18.31
1777398939919,1576902,-0.09,-0.99,-0.07,-56.88,25.15,-27.04
1777398939919,1576912,0.03,-0.65,-0.51,-52.86,-22.64,-42.11
1777398939919,1576922,-0.10,-0.49,-0.22,-39.92,-47.49,-37.84
1777398939919,1576932,-0.16,-0.43,-0.27,-45.84,-85.69,-36.74
1777398939919,1576942,0.01,-0.81,-0.82,-32.47,-106.75,-25.33
1777398939919,1576952,0.10,-0.87,-0.72,-27.34,-90.88,-8.85
1777398939920,1576962,0.21,-0.78,-0.68,-44.31,-76.48,2.38
1777398939920,1576972,0.21,-0.85,-0.66,-60.30,-67.38,22.09
1777398939920,1576982,0.14,-0.90,-0.77,-71.41,-59.08,34.48
1777398939920,1576992,0.10,-0.79,-0.63,-76.66,-54.08,33.02
1777398939920,1577002,-0.00,-0.78,-0.50,-77.76,-64.58,29.72
1777398939920,1577012,-0.15,-0.79,-0.46,-73.91,-83.50,30.15
1777398939920,1577022,-0.18,-0.89,-0.57,-63.90,-104.25,26.00
1777398939920,1577032,-0.08,-0.81,-0.75,-48.95,-110.78,13.55
1777398939921,1577042,0.09,-0.79,-0.80,-35.71,-98.94,4.52
1777398939921,1577052,-0.01,-0.71,-0.81,-28.99,-74.04,-1.83
1777398939921,1577062,-0.06,-0.72,-0.71,-25.15,-48.22,-2.93
1777398939921,1577072,-0.12,-0.72,-0.56,-10.86,-29.97,3.66
1777398939921,1577092,-0.11,-0.52,-0.59,13.79,-11.72,22.95
1777398939921,1577112,-0.45,-0.46,-0.55,27.77,-79.96,43.33
1777398939921,1577132,-0.19,-0.71,-0.87,4.76,-92.77,48.71
1777398939921,1577152,-0.29,-0.61,-0.88,17.40,-35.95,57.62
1777398939922,1577162,-0.24,-0.60,-0.75,7.14,-6.71,60.91
1777398939922,1577172,-0.32,-0.56,-0.58,0.79,1.71,63.48
1777398939922,1577182,-0.01,-0.77,-0.52,-5.68,-8.67,56.58
1777398939922,1577192,0.03,-0.77,-0.51,-9.77,-30.76,37.90
1777398939922,1577202,-0.28,-0.58,-0.40,-25.45,-54.93,28.38
1777398939922,1577212,-0.27,-0.59,-0.50,-33.20,-85.75,28.44
1777398939922,1577222,-0.17,-0.60,-0.68,-29.54,-112.24,30.33
1777398939922,1577232,-0.24,-0.56,-0.64,-24.35,-120.61,32.29
1777398939923,1577242,-0.20,-0.73,-0.81,-18.92,-122.62,35.46
1777398939923,1577252,-0.17,-0.71,-0.74,-24.23,-104.49,25.21
1777398939923,1577262,-0.28,-0.67,-0.72,-8.73,-85.94,16.24
1777398939923,1577272,-0.32,-0.50,-0.83,20.81,-90.64,10.01
1777398939923,1577282,-0.52,-0.46,-0.59,29.05,-109.19,4.09
1777398939923,1577292,-0.55,-0.61,-0.70,43.21,-140.44,6.84
1777398939923,1577302,-0.57,-0.62,-0.75,69.76,-176.03,2.56
1777398939923,1577312,-0.48,-0.33,-0.67,100.10,-211.24,0.43
1777398939923,1577322,-0.61,-0.30,-0.27,93.32,-234.86,6.65
1777398939924,1577332,-0.62,-0.66,-0.92,81.36,-268.74,13.43
1777398939924,1577342,-0.47,-0.66,-0.86,91.31,-272.71,2.38
1777398939924,1577352,-0.51,-0.63,-0.95,111.08,-255.43,-6.59
1777398939924,1577362,-0.50,-0.61,-0.77,126.34,-224.24,-12.70
1777398939924,1577372,-0.55,-0.60,-0.54,139.53,-198.49,-15.99
1777398939924,1577382,-0.61,-0.57,-0.39,146.12,-188.90,-21.18
1777398939924,1577392,-0.61,-0.50,-0.25,141.54,-190.06,-24.90
1777398939924,1577402,-0.68,-0.57,-0.24,130.00,-194.40,-25.33
1777398939925,1577412,-0.74,-0.67,-0.37,118.29,-199.95,-25.51
1777398939925,1577422,-0.65,-0.64,-0.29,119.75,-199.65,-25.15
1777398939925,1577442,-0.58,-0.72,0.04,138.43,-179.14,-21.55
1777398939925,1577462,-0.63,-0.67,-0.01,119.87,-151.12,-20.14
1777398939925,1577482,-0.60,-0.73,0.13,120.73,-119.75,-22.89
1777398939925,1577492,-0.58,-0.72,0.22,113.28,-105.53,-26.92
1777398939925,1577502,-0.53,-0.71,0.43,95.64,-96.86,-29.54
1777398939926,1577512,-0.54,-0.61,0.48,63.29,-97.29,-29.11
1777398939926,1577522,-0.42,-0.77,0.32,30.27,-102.97,-24.11
1777398939926,1577532,-0.47,-0.69,0.35,16.85,-98.14,-18.55
1777398939926,1577542,-0.50,-0.78,0.18,14.95,-91.31,-8.18
1777398939926,1577552,-0.49,-0.84,0.10,11.60,-83.80,-4.58
1777398939926,1577562,-0.51,-0.91,0.10,9.16,-69.95,-8.06
1777398939926,1577572,-0.54,-0.97,0.22,13.98,-58.72,-15.08
1777398939926,1577582,-0.56,-0.95,0.28,24.60,-53.16,-25.27
1777398939926,1577592,-0.56,-0.86,0.35,34.12,-57.01,-33.33
1777398939927,1577602,-0.56,-0.85,0.39,33.87,-67.50,-38.21
1777398939927,1577612,-0.56,-0.85,0.43,29.17,-82.40,-41.38
1777398939927,1577622,-0.51,-0.86,0.43,24.72,-99.98,-41.93
1777398939927,1577632,-0.46,-0.86,0.37,19.17,-113.77,-39.12
1777398939927,1577642,-0.43,-0.86,0.35,11.90,-117.13,-33.20
1777398939927,1577652,-0.40,-0.90,0.31,5.68,-114.93,-24.41
1777398939927,1577662,-0.39,-0.91,0.27,3.42,-108.58,-16.42
1777398939927,1577672,-0.41,-0.87,0.27,5.07,-98.45,-11.29
1777398939927,1577682,-0.44,-0.86,0.29,5.62,-85.88,-7.32
1777398939928,1577692,-0.47,-0.83,0.36,3.36,-73.30,-7.81
1777398939928,1577702,-0.49,-0.78,0.36,-4.58,-65.12,-9.95
1777398939928,1577712,-0.51,-0.80,0.45,-20.39,-57.56,-8.97
1777398939928,1577722,-0.48,-0.87,0.45,-29.17,-60.49,-12.70
1777398939928,1577732,-0.46,-0.86,0.43,-30.03,-64.82,-16.36
1777398939928,1577742,-0.40,-0.86,0.40,-29.72,-64.21,-18.43
1777398939928,1577752,-0.35,-0.88,0.36,-27.04,-58.29,-17.09
1777398939928,1577762,-0.32,-0.86,0.38,-19.90,-48.58,-11.17
1777398939928,1577782,-0.25,-0.79,0.39,-5.98,-16.54,-0.61
1777398939929,1577802,-0.33,-0.78,0.37,-2.62,15.20,1.16
1777398939929,1577822,-0.36,-0.87,0.41,-6.16,58.35,-0.55
1777398939929,1577842,-0.34,-0.81,0.47,4.76,75.68,-2.08
1777398939929,1577852,-0.33,-0.82,0.48,3.05,76.23,-0.06
1777398939929,1577862,-0.27,-0.79,0.52,1.28,71.29,2.08
1777398939929,1577872,-0.36,-0.84,0.45,-1.83,62.38,6.35
1777398939929,1577882,-0.34,-0.84,0.40,-4.09,54.38,9.64
1777398939929,1577892,-0.40,-0.90,0.41,-2.20,49.19,10.31
1777398939929,1577902,-0.33,-0.84,0.40,2.26,45.90,4.21
1777398939929,1577912,-0.39,-0.76,0.40,5.00,43.40,2.08
1777398939930,1577922,-0.33,-0.83,0.34,2.62,41.32,7.45
1777398939930,1577932,-0.39,-0.82,0.35,-1.10,44.07,7.57
1777398939930,1577942,-0.41,-0.81,0.36,-3.23,45.78,7.93
1777398939930,1577952,-0.44,-0.79,0.37,-5.55,43.88,8.61
1777398939930,1577962,-0.46,-0.82,0.37,-9.77,37.84,10.13
1777398939930,1577972,-0.47,-0.85,0.35,-14.77,28.87,10.01
1777398939930,1577982,-0.47,-0.85,0.29,-17.09,20.08,7.87
1777398939930,1577992,-0.46,-0.83,0.24,-17.21,15.20,6.35
1777398939930,1578002,-0.46,-0.84,0.21,-16.17,14.59,6.65
1777398939931,1578012,-0.47,-0.84,0.20,-13.37,16.91,6.59
1777398939931,1578022,-0.48,-0.84,0.19,-9.52,19.53,6.16
1777398939931,1578032,-0.49,-0.84,0.20,-6.35,22.22,6.41
1777398939931,1578042,-0.52,-0.84,0.22,-3.97,24.23,6.90
1777398939931,1578052,-0.53,-0.84,0.22,-2.44,24.78,7.57
1777398939931,1578062,-0.55,-0.83,0.24,-2.87,23.93,8.61
1777398939931,1578072,-0.56,-0.85,0.22,-3.97,21.06,9.34
1777398939931,1578082,-0.57,-0.87,0.22,-4.46,18.86,8.91
1777398939931,1578092,-0.57,-0.87,0.22,-3.42,16.30,7.75
1777398939931,1578102,-0.57,-0.87,0.22,-1.71,13.24,6.96
1777398939932,1578112,-0.59,-0.88,0.24,-0.67,10.44,4.03
1777398939932,1578132,-0.60,-0.86,0.26,3.72,-8.18,3.60
1777398939932,1578152,-0.59,-0.89,0.28,9.46,-13.92,7.57
1777398939932,1578172,-0.61,-0.88,0.32,14.95,-22.71,9.52
1777398939932,1578182,-0.61,-0.86,0.35,16.05,-29.72,10.99
1777398939932,1578192,-0.58,-0.84,0.34,14.83,-39.86,12.51
1777398939932,1578202,-0.53,-0.82,0.29,12.94,-47.67,15.32
1777398939932,1578212,-0.40,-0.78,0.18,12.39,-46.75,21.36
1777398939932,1578222,-0.30,-0.76,0.04,19.35,-27.04,32.78
1777398939933,1578232,-0.14,-0.72,-0.17,37.84,23.86,48.52
1777398939942,1578242,-0.10,-0.71,-0.37,66.53,116.88,67.87
1777398939952,1578252,-0.28,-0.66,-0.52,107.91,258.00,91.37
1777398939962,1578262,-0.79,-0.63,-0.44,158.02,436.52,115.60
1777398939972,1578272,-1.52,-0.65,-0.14,205.63,614.32,125.92
1777398939982,1578282,-2.21,-0.72,0.23,225.16,746.70,101.01
1777398939992,1578292,-2.60,-0.79,0.72,208.98,803.10,31.49
1777398940002,1578302,-2.46,-0.84,1.22,156.49,775.51,-68.85
1777398940012,1578312,-2.21,-0.93,1.52,73.49,681.70,-170.90
1777398940022,1578322,-1.46,-0.72,1.48,-27.22,557.68,-264.71
1777398940032,1578332,-0.78,-0.21,1.21,-135.62,445.19,-318.48
1777398940042,1578342,-0.12,-0.03,0.81,-243.59,355.71,-303.77
1777398940052,1578352,0.31,-0.16,0.34,-329.41,270.57,-244.08
1777398940062,1578362,0.26,-0.52,0.14,-373.90,161.44,-171.33
1777398940072,1578372,-0.02,-0.85,0.09,-361.82,-4.27,-112.37
1777398940082,1578382,-0.22,-0.95,-0.20,-296.69,-231.45,-86.67
1777398940092,1578392,-0.33,-0.77,-0.72,-203.06,-456.42,-85.57
1777398940102,1578402,-0.40,-0.41,-1.01,-125.24,-619.02,-87.95
1777398940112,1578412,-0.49,-0.16,-1.18,-88.01,-713.38,-75.07
1777398940122,1578422,-0.42,0.00,-1.54,-73.18,-744.63,-50.05
1777398940132,1578432,-0.29,0.10,-2.10,-57.80,-688.17,-24.72
1777398940142,1578442,-0.02,0.06,-2.58,-29.48,-511.05,1.16
1777398940152,1578452,-0.09,-0.21,-2.55,31.92,-218.32,46.81
1777398940172,1578472,-1.12,-0.41,-0.89,192.81,506.77,40.47
1777398940192,1578492,-1.61,-0.61,1.55,79.16,369.38,-39.25
1777398940212,1578512,-1.08,-0.67,0.93,-145.32,-78.12,-111.82
1777398940232,1578532,-0.59,-0.16,-0.87,-255.13,-409.24,-110.11
1777398940245,1578542,-0.25,-0.33,-1.87,-223.27,-469.73,-66.83
1777398940253,1578552,-0.01,-0.66,-2.64,-95.64,-421.08,-12.45
1777398940262,1578562,0.16,-0.68,-2.80,112.24,-246.64,38.57
1777398940272,1578572,-0.24,-0.23,-2.12,326.66,11.11,75.99
1777398940282,1578582,-0.93,0.02,-1.04,455.08,247.92,97.66
1777398940292,1578592,-1.40,0.04,-0.07,462.34,387.21,92.77
1777398940302,1578602,-1.78,-0.29,0.83,361.88,416.38,52.49
1777398940312,1578612,-1.74,-0.72,1.40,213.44,352.11,-6.16
1777398940322,1578622,-1.29,-0.88,1.52,65.98,223.75,-65.25
1777398940332,1578632,-0.95,-0.74,1.22,-59.39,65.31,-104.37
1777398940342,1578642,-0.72,-0.67,0.77,-154.85,-90.21,-110.72
1777398940352,1578652,-0.77,-0.74,0.45,-219.48,-233.64,-93.32
1777398940362,1578662,-0.86,-0.64,0.12,-251.28,-371.34,-72.02
1777398940372,1578672,-0.67,-0.11,-0.56,-263.49,-487.12,-50.05
1777398940382,1578682,-0.40,0.19,-1.79,-255.86,-526.86,-7.87
1777398940393,1578692,-0.18,-0.29,-2.81,-179.14,-421.81,46.02
1777398940402,1578702,-0.26,-0.85,-2.84,-1.83,-170.29,74.40
1777398940412,1578712,-0.77,-0.54,-1.85,213.62,131.29,67.57
1777398940422,1578722,-1.33,-0.23,-0.77,338.62,346.31,50.84
1777398940432,1578732,-1.59,-0.18,0.11,331.18,436.34,26.55
1777398940442,1578742,-1.65,-0.51,0.79,235.66,429.32,-14.47
1777398940452,1578752,-1.51,-0.83,1.37,109.92,346.13,-64.45
1777398940462,1578762,-1.11,-0.77,1.41,-15.44,194.64,-107.73
1777398940472,1578772,-0.85,-0.73,1.13,-128.05,15.01,-131.35
1777398940482,1578782,-0.86,-0.70,0.83,-219.42,-164.43,-137.70
1777398940492,1578792,-0.89,-0.55,0.35,-284.24,-338.20,-132.45
1777398940502,1578802,-0.79,-0.23,-0.37,-318.30,-559.88,-82.76
1777398940522,1578822,-0.03,-0.09,-3.03,-54.75,-205.99,21.91
1777398940542,1578842,-1.12,-0.18,-1.02,379.76,394.35,59.33
1777398940562,1578862,-1.59,-0.21,0.73,315.55,503.48,43.46
1777398940572,1578872,-1.42,-0.63,1.01,173.52,429.38,3.66
1777398940582,1578882,-1.15,-0.99,1.17,45.84,331.30,-34.67
1777398940592,1578892,-0.93,-1.00,1.27,-53.34,202.82,-66.83
1777398940602,1578902,-0.88,-0.82,1.21,-135.19,34.36,-85.27
1777398940612,1578912,-0.88,-0.73,0.89,-212.46,-162.78,-87.22
1777398940622,1578922,-0.94,-0.61,0.31,-272.71,-358.03,-82.40
1777398940632,1578932,-0.96,-0.33,-0.46,-297.67,-507.26,-72.57
1777398940643,1578942,-0.74,0.05,-1.70,-281.62,-567.44,-61.34
1777398940652,1578952,-0.30,-0.11,-2.87,-212.89,-477.97,-47.49
1777398940662,1578962,0.10,-0.59,-3.12,-62.68,-219.24,-23.74
1777398940672,1578972,-0.23,-0.48,-2.22,143.68,111.57,14.10
1777398940682,1578982,-0.90,-0.24,-1.07,286.07,360.72,64.15
1777398940693,1578992,-1.37,-0.24,-0.14,302.19,473.33,94.48
1777398940702,1579002,-1.52,-0.50,0.50,227.54,472.72,82.76
1777398940712,1579012,-1.54,-0.82,0.98,121.34,393.98,36.93
1777398940722,1579022,-1.26,-0.89,1.23,17.03,260.86,-20.08
1777398940732,1579032,-1.03,-0.85,1.10,-80.26,84.59,-70.01
1777398940743,1579042,-0.95,-0.79,0.75,-163.02,-102.60,-103.76
1777398940753,1579052,-0.96,-0.75,0.39,-223.45,-277.10,-120.48
1777398940762,1579062,-0.98,-0.53,-0.04,-262.70,-430.85,-130.74
1777398940772,1579072,-0.92,-0.12,-0.80,-278.26,-543.58,-128.05
1777398940782,1579082,-0.66,0.13,-2.02,-257.32,-563.54,-114.14
1777398940793,1579092,-0.12,-0.10,-2.90,-179.87,-428.34,-96.80
1777398940802,1579102,0.17,-0.55,-2.93,-26.67,-153.14,-64.33
1777398940812,1579112,-0.13,-0.34,-2.07,166.56,153.02,-8.06
1777398940822,1579122,-0.73,-0.17,-1.15,297.42,365.84,62.81
1777398940832,1579132,-1.18,-0.19,-0.25,319.21,467.83,108.46
1777398940843,1579142,-1.32,-0.41,0.29,264.40,472.29,75.56
1777398940862,1579162,-1.19,-0.93,1.04,-11.35,195.25,-11.90
1777398940882,1579182,-0.85,-0.87,0.57,-153.81,-178.59,-80.32
1777398940902,1579202,-0.96,-0.52,-0.29,-218.81,-494.14,-104.13
1777398940922,1579222,-0.56,0.14,-2.21,-194.34,-558.23,-94.42
1777398940932,1579232,0.07,-0.15,-3.17,-114.07,-385.86,-75.87
1777398940942,1579242,0.26,-0.44,-3.07,52.25,-67.50,-21.79
1777398940952,1579252,-0.35,-0.17,-2.01,243.29,268.19,57.50
1777398940962,1579262,-1.05,-0.15,-0.94,348.75,494.38,137.02
1777398940972,1579272,-1.54,-0.41,-0.01,345.34,589.36,169.49
1777398940982,1579282,-1.80,-0.57,0.74,269.90,575.56,139.53
1777398940992,1579292,-1.75,-0.79,1.32,160.83,476.99,77.94
1777398941002,1579302,-1.39,-1.01,1.60,39.98,312.93,11.17
1777398941012,1579312,-1.13,-0.98,1.39,-78.43,101.26,-52.06
1777398941022,1579322,-1.00,-0.91,0.92,-172.00,-117.74,-95.21
1777398941032,1579332,-1.03,-0.80,0.42,-235.84,-312.19,-116.33
1777398941042,1579342,-1.06,-0.53,-0.09,-271.67,-472.90,-129.09
1777398941052,1579352,-1.07,-0.15,-0.79,-282.17,-583.68,-129.82
1777398941062,1579362,-0.87,0.17,-1.86,-261.47,-606.02,-122.99
1777398941072,1579372,-0.32,0.15,-2.81,-198.67,-489.38,-108.95
1777398941082,1579382,0.21,-0.26,-3.15,-75.62,-231.57,-72.57
1777398941092,1579392,0.09,-0.47,-2.63,103.33,93.44,-4.94
1777398941102,1579402,-0.60,-0.18,-1.66,270.51,365.97,78.43
1777398941112,1579412,-1.18,-0.13,-0.78,341.55,526.18,139.95
1777398941122,1579422,-1.54,-0.30,0.09,314.39,579.35,146.61
1777398941132,1579432,-1.63,-0.58,0.74,229.19,535.16,106.08
1777398941142,1579442,-1.52,-0.89,1.23,120.91,426.39,46.94
1777398941152,1579452,-1.18,-1.02,1.40,8.24,258.67,-15.99
1777398941162,1579462,-0.98,-0.92,1.14,-94.36,45.65,-72.88
1777398941172,1579472,-0.89,-0.80,0.62,-172.67,-168.95,-108.46
1777398941182,1579482,-0.91,-0.72,0.06,-221.56,-353.45,-124.33
1777398941202,1579502,-0.93,-0.14,-1.10,-191.41,-543.88,-115.05
1777398941222,1579522,-0.07,-0.39,-2.79,26.00,-90.52,-44.37
1777398941242,1579542,-0.85,-0.18,-1.08,290.53,421.02,113.89
1777398941263,1579562,-1.54,-0.54,0.46,235.35,529.30,138.92
1777398941272,1579572,-1.43,-0.71,0.79,139.16,461.49,84.96
1777398941282,1579582,-1.21,-0.89,0.98,36.38,354.31,24.17
1777398941292,1579592,-1.00,-1.00,1.05,-55.79,212.52,-27.22
1777398941302,1579602,-0.93,-0.82,0.90,-130.43,36.80,-72.20
1777398941312,1579612,-0.92,-0.76,0.60,-194.34,-156.01,-104.31
1777398941322,1579622,-0.99,-0.56,0.04,-242.98,-343.32,-126.40
1777398941332,1579632,-1.06,-0.29,-0.71,-263.79,-487.67,-139.83
1777398941342,1579642,-0.93,0.01,-1.68,-248.60,-551.57,-149.17
1777398941352,1579652,-0.43,0.16,-2.66,-193.30,-494.87,-151.06
1777398941362,1579662,0.28,-0.02,-3.19,-85.57,-298.03,-117.68
1777398941372,1579672,0.40,-0.31,-2.81,72.08,-2.99,-36.19
1777398941382,1579682,-0.21,-0.16,-1.89,219.97,285.03,64.70
1777398941392,1579692,-0.89,-0.17,-1.04,285.83,484.44,143.92
1777398941402,1579702,-1.34,-0.36,-0.31,271.42,583.13,171.39
1777398941412,1579712,-1.43,-0.50,0.09,216.92,591.25,144.84
1777398941422,1579722,-1.22,-0.52,0.25,145.45,550.48,86.36
1777398941432,1579732,-1.00,-0.67,0.42,62.38,497.31,26.61
1777398941444,1579742,-0.87,-0.91,0.78,-23.68,428.10,-20.94
1777398941452,1579752,-0.71,-1.04,1.06,-106.87,305.79,-61.77
1777398941462,1579762,-0.62,-0.94,1.01,-186.83,122.01,-95.70
1777398941472,1579772,-0.63,-0.72,0.67,-252.01,-96.13,-114.44
1777398941482,1579782,-0.75,-0.63,0.04,-286.19,-316.53,-114.75
1777398941493,1579792,-0.92,-0.48,-0.56,-278.87,-498.35,-112.12
1777398941503,1579802,-1.14,-0.18,-1.19,-238.40,-614.14,-115.48
1777398941512,1579812,-1.21,0.12,-1.91,-184.08,-646.06,-136.60
1777398941522,1579822,-0.93,0.23,-2.47,-129.52,-585.51,-171.75
1777398941532,1579832,-0.27,0.13,-2.77,-63.72,-438.78,-161.19
1777398941552,1579852,0.36,-0.11,-2.26,235.05,227.91,26.49
1777398941572,1579872,-1.00,-0.17,-0.40,232.60,488.65,168.03
1777398941592,1579892,-1.48,-0.87,0.67,70.74,440.00,126.22
1777398941612,1579912,-1.24,-0.96,0.91,-91.06,93.02,-23.01
1777398941622,1579922,-1.12,-0.76,0.36,-143.62,-135.68,-94.85
1777398941632,1579932,-1.04,-0.66,-0.26,-167.11,-333.98,-143.37
1777398941643,1579942,-0.94,-0.35,-0.97,-166.75,-480.16,-177.37
1777398941652,1579952,-0.63,0.04,-1.89,-134.34,-553.41,-190.98
1777398941662,1579962,-0.18,0.11,-2.81,-59.45,-512.82,-167.54
1777398941672,1579972,0.25,-0.09,-2.98,63.60,-332.40,-97.29
1777398941682,1579982,0.35,-0.05,-2.74,228.88,-57.56,0.79
1777398941692,1579992,-0.41,0.01,-1.79,354.55,233.28,97.29
1777398941702,1580002,-1.21,-0.10,-0.90,397.64,456.79,156.19
1777398941712,1580012,-1.73,-0.39,-0.02,358.64,571.96,151.61
1777398941723,1580022,-1.84,-0.58,0.48,270.63,575.44,88.26
1777398941732,1580032,-1.35,-0.72,0.52,170.65,516.42,-3.97
1777398941742,1580042,-0.77,-0.79,0.51,71.66,454.96,-86.43
1777398941752,1580052,-0.55,-0.81,0.78,-22.46,396.18,-135.38
1777398941762,1580062,-0.28,-0.76,0.99,-117.37,291.87,-142.94
1777398941772,1580072,-0.16,-0.63,0.84,-208.50,116.52,-119.87
1777398941782,1580082,-0.22,-0.62,0.47,-270.39,-119.14,-81.48
1777398941792,1580092,-0.52,-0.85,-0.27,-266.97,-385.99,-45.53
1777398941802,1580102,-0.68,-0.78,-0.94,-197.45,-611.15,-36.38
1777398941812,1580112,-0.78,-0.39,-1.28,-114.44,-744.51,-38.45
1777398941822,1580122,-0.95,-0.02,-1.56,-62.26,-794.25,-32.59
1777398941832,1580132,-0.88,0.29,-2.21,-33.39,-766.97,-31.31
1777398941842,1580142,-0.55,0.21,-2.76,-5.19,-631.04,-40.53
1777398941852,1580152,-0.17,-0.14,-2.86,56.95,-367.07,-41.38
1777398941862,1580162,-0.06,-0.10,-2.49,176.09,-15.99,-20.26
1777398941872,1580172,-0.65,-0.04,-1.94,279.91,329.65,71.84
1777398941892,1580192,-1.97,-0.27,-0.24,228.27,758.91,62.38
1777398941912,1580212,-1.59,-0.66,0.50,32.29,582.28,-44.13
1777398941932,1580232,-0.48,-0.83,0.78,-127.32,345.76,-81.54
1777398941952,1580252,-0.36,-0.77,0.08,-190.00,-123.72,-52.12
1777398941962,1580262,-0.50,-0.86,-0.51,-148.62,-375.12,-32.59
1777398941972,1580272,-0.51,-0.81,-1.04,-60.30,-571.17,-23.68
1777398941982,1580282,-0.46,-0.37,-1.39,23.99,-673.58,-23.19
1777398941992,1580292,-0.35,-0.07,-1.98,78.25,-674.68,-16.05
1777398942002,1580302,-0.21,-0.01,-2.50,118.35,-547.00,4.70
1777398942012,1580312,-0.14,-0.12,-2.67,170.41,-278.99,37.48
1777398942022,1580322,-0.60,-0.26,-2.29,234.62,90.88,61.46
1777398942032,1580332,-1.45,-0.37,-1.33,274.96,448.18,61.71
1777398942042,1580342,-2.02,-0.50,-0.38,269.04,663.88,27.95
1777398942052,1580352,-1.92,-0.58,0.23,225.89,720.52,-36.87
1777398942062,1580362,-1.36,-0.58,0.37,172.06,680.24,-107.60
1777398942072,1580372,-0.61,-0.56,0.31,116.15,615.66,-152.59
1777398942082,1580382,-0.07,-0.64,0.27,59.27,555.85,-163.27
1777398942092,1580392,0.09,-0.86,0.56,1.04,486.69,-141.91
1777398942102,1580402,0.19,-0.99,0.95,-62.01,355.59,-97.78
1777398942112,1580412,0.22,-0.93,0.89,-128.85,125.37,-49.32
1777398942122,1580422,0.04,-0.88,0.43,-166.93,-161.32,1.59
1777398942132,1580432,-0.26,-0.96,-0.23,-153.20,-435.36,51.27
1777398942142,1580442,-0.57,-0.81,-0.54,-114.87,-636.54,79.53
1777398942152,1580452,-0.82,-0.60,-0.70,-98.82,-767.03,86.61
1777398942162,1580462,-1.11,-0.44,-0.82,-111.33,-842.71,83.19
1777398942172,1580472,-1.19,-0.15,-1.01,-132.32,-864.01,69.82
1777398942182,1580482,-1.20,0.17,-1.76,-128.23,-820.92,44.62
1777398942192,1580492,-0.83,0.10,-2.71,-98.69,-659.06,17.64
1777398942202,1580502,-0.40,-0.32,-2.93,-30.27,-327.03,-11.84
1777398942212,1580512,-0.46,-0.35,-2.38,115.66,108.22,-31.62
1777398942222,1580522,-1.27,-0.39,-1.77,253.91,500.85,-34.61
1777398942242,1580542,-2.28,-0.68,0.53,166.75,747.07,-125.18
1777398942262,1580562,-0.28,-0.61,0.68,-35.34,504.70,-188.11
1777398942282,1580582,-0.03,-1.04,0.69,-202.09,210.02,-111.76
1777398942303,1580602,-0.59,-0.94,0.19,-216.06,-303.53,-55.05
1777398942312,1580612,-0.78,-0.54,-0.46,-180.42,-545.23,-52.31
1777398942322,1580622,-0.90,-0.14,-1.17,-147.34,-697.02,-55.79
1777398942332,1580632,-0.80,0.11,-1.93,-109.80,-747.92,-66.96
1777398942342,1580642,-0.60,0.08,-2.70,-44.01,-686.52,-82.82
1777398942352,1580652,-0.24,-0.16,-2.99,59.75,-488.40,-86.49
1777398942362,1580662,-0.06,-0.05,-2.50,197.02,-172.12,-73.12
1777398942372,1580672,-0.52,-0.12,-2.27,306.46,177.19,-49.68
1777398942382,1580682,-1.34,-0.32,-1.14,316.35,474.12,-44.19
1777398942392,1580692,-1.87,-0.62,-0.18,282.35,639.16,-85.02
1777398942402,1580702,-1.72,-0.85,0.62,211.98,666.63,-168.15
1777398942412,1580712,-0.99,-0.77,0.92,119.14,598.39,-259.77
1777398942422,1580722,-0.08,-0.59,0.94,10.07,504.15,-312.56
1777398942432,1580732,0.54,-0.50,0.94,-111.45,409.73,-300.96
1777398942442,1580742,0.97,-0.52,0.68,-224.30,289.00,-220.21
1777398942452,1580752,0.82,-0.59,0.20,-293.58,120.24,-102.66
1777398942462,1580762,0.27,-0.79,-0.29,-282.96,-88.20,-0.61
1777398942472,1580772,-0.33,-0.90,-0.82,-189.27,-306.76,36.80
1777398942482,1580782,-0.58,-0.79,-1.34,-55.48,-489.01,2.81
1777398942492,1580792,-0.44,-0.63,-1.68,66.16,-602.66,-60.24
1777398942502,1580802,-0.22,-0.50,-1.73,148.38,-643.01,-97.72
1777398942512,1580812,-0.03,-0.50,-1.59,196.78,-626.83,-89.23
1777398942522,1580822,0.01,-0.40,-1.43,222.23,-569.40,-56.82
1777398942532,1580832,0.01,-0.29,-1.55,231.51,-467.65,-19.71
1777398942542,1580842,-0.07,-0.28,-1.50,225.40,-286.13,13.37
1777398942552,1580852,-0.36,-0.32,-1.25,199.04,-45.35,33.94
1777398942562,1580862,-0.82,-0.60,-0.85,151.12,200.26,-0.12
1777398942582,1580882,-1.15,-1.01,0.24,-64.76,514.04,-112.18
1777398942602,1580902,-0.30,-0.82,0.72,-212.28,389.10,-114.20
1777398942622,1580922,-0.16,-0.98,0.09,-286.50,-57.74,-11.11
1777398942642,1580942,-0.65,-0.99,-1.19,-113.10,-567.87,-22.95
1777398942653,1580952,-0.54,-0.56,-1.48,-8.00,-692.14,-63.23
1777398942662,1580962,-0.54,-0.16,-1.70,43.58,-722.72,-73.06
1777398942672,1580972,-0.45,-0.01,-2.23,76.60,-668.03,-59.75
1777398942682,1580982,-0.19,0.04,-2.52,134.03,-491.15,-49.44
1777398942692,1580992,-0.06,0.04,-2.33,220.95,-191.41,-33.02
1777398942702,1581002,-0.43,-0.06,-1.69,297.61,160.40,-3.05
1777398942712,1581012,-1.17,-0.31,-0.68,315.92,462.83,23.13
1777398942722,1581022,-1.64,-0.74,0.22,266.78,631.16,19.71
1777398942732,1581032,-1.59,-0.99,0.72,176.39,670.65,-27.59
1777398942742,1581042,-1.08,-0.98,0.83,70.25,640.93,-100.16
1777398942752,1581052,-0.38,-0.81,0.73,-42.24,594.67,-157.23
1777398942762,1581062,0.15,-0.71,0.56,-152.83,547.49,-166.50
1777398942772,1581072,0.41,-0.77,0.51,-244.14,482.54,-123.47
1777398942782,1581082,0.46,-0.76,0.46,-304.02,350.40,-55.48
1777398942792,1581092,0.22,-0.90,0.26,-317.32,121.03,12.70
1777398942802,1581102,-0.29,-1.05,-0.21,-258.73,-177.61,50.48
1777398942812,1581112,-0.63,-0.99,-0.90,-136.41,-467.10,36.74
1777398942822,1581122,-0.69,-0.64,-1.44,-5.49,-664.43,-6.04
1777398942833,1581132,-0.75,-0.33,-1.70,76.84,-749.33,-43.95
1777398942842,1581142,-0.67,-0.26,-1.89,116.82,-747.13,-70.80
1777398942852,1581152,-0.37,-0.30,-2.16,159.06,-665.22,-88.20
1777398942862,1581162,-0.08,-0.21,-2.17,221.56,-477.60,-78.92
1777398942872,1581172,-0.02,-0.17,-1.81,289.79,-196.84,-38.94
1777398942882,1581182,-0.54,-0.21,-1.13,318.30,115.60,4.21
1777398942892,1581192,-1.24,-0.52,-0.35,276.25,377.62,20.87
1777398942902,1581202,-1.62,-0.96,0.32,190.92,531.56,-10.25
1777398942913,1581212,-1.46,-1.11,0.65,97.35,576.11,-169.98
1777398942932,1581232,-0.19,-0.64,0.36,-152.40,510.62,-213.13
1777398942952,1581252,0.55,-0.78,0.45,-265.08,277.47,-85.75
1777398942972,1581272,-0.00,-1.07,-0.51,-192.81,-294.49,32.59
1777398942992,1581292,-0.24,-0.69,-1.58,50.96,-693.60,22.77
1777398943003,1581302,-0.31,-0.49,-1.56,112.37,-733.89,17.52
1777398943012,1581312,-0.38,-0.35,-1.65,140.01,-711.36,26.49
1777398943022,1581322,-0.34,-0.28,-1.91,169.98,-619.69,29.24
1777398943032,1581332,-0.25,-0.21,-1.94,215.88,-433.17,25.15
1777398943042,1581342,-0.31,-0.21,-1.74,274.72,-161.38,25.82
1777398943052,1581352,-0.80,-0.40,-1.05,307.19,153.44,24.23
1777398943062,1581362,-1.39,-0.68,-0.02,279.48,419.62,2.93
1777398943072,1581372,-1.56,-0.89,0.77,192.44,551.64,-44.86
1777398943082,1581382,-1.19,-0.82,0.93,72.81,563.17,-107.79
1777398943092,1581392,-0.57,-0.67,0.54,-50.54,531.86,-153.93
1777398943102,1581402,-0.10,-0.69,0.12,-145.39,512.08,-158.94
1777398943112,1581412,0.02,-0.87,0.11,-193.66,490.42,-127.08
1777398943122,1581422,0.07,-0.90,0.46,-212.46,409.48,-83.44
1777398943132,1581432,0.16,-0.85,0.51,-226.50,214.48,-41.44
1777398943142,1581442,0.05,-0.90,0.16,-218.99,-69.58,1.10
1777398943152,1581452,-0.19,-1.07,-0.44,-154.91,-370.85,40.22
1777398943162,1581462,-0.31,-0.92,-0.97,-49.99,-608.28,60.00
1777398943172,1581472,-0.53,-0.56,-1.22,28.63,-738.95,68.66
1777398943182,1581482,-0.68,-0.47,-1.39,61.52,-781.92,68.66
1777398943192,1581492,-0.65,-0.48,-1.63,81.91,-753.42,51.15
1777398943202,1581502,-0.43,-0.36,-1.86,120.30,-639.28,29.66
1777398943212,1581512,-0.18,-0.24,-1.96,180.73,-420.84,27.65
1777398943222,1581522,-0.37,-0.35,-1.67,242.80,-105.83,37.54
1777398943232,1581532,-1.04,-0.53,-0.73,262.15,236.39,29.54
1777398943242,1581542,-1.58,-0.73,0.24,214.54,477.05,-8.91
1777398943252,1581552,-1.64,-0.78,0.70,126.59,568.91,-115.30
1777398943272,1581572,-0.75,-0.67,0.16,-113.59,558.23,-148.86
1777398943292,1581592,-0.36,-0.90,0.52,-172.06,433.29,-91.31
1777398943312,1581612,-0.23,-1.00,0.26,-193.36,-87.65,-16.17
1777398943332,1581632,-0.41,-0.85,-1.07,-38.21,-641.42,28.08
1777398943342,1581642,-0.39,-0.67,-1.32,24.96,-749.63,44.13
1777398943353,1581652,-0.45,-0.51,-1.39,51.15,-762.57,64.21
1777398943362,1581662,-0.48,-0.35,-1.59,63.29,-702.76,74.77
1777398943372,1581672,-0.38,-0.28,-1.79,80.20,-561.65,72.33
1777398943382,1581682,-0.33,-0.36,-1.87,116.82,-328.37,63.72
1777398943392,1581692,-0.59,-0.48,-1.57,158.94,-19.90,44.37
1777398943403,1581702,-1.13,-0.60,-0.86,174.80,287.17,5.80
1777398943412,1581712,-1.50,-0.70,-0.11,156.92,500.06,-46.63
1777398943422,1581722,-1.51,-0.67,0.37,113.22,588.20,-101.93
1777398943432,1581732,-1.22,-0.54,0.45,51.15,588.44,-144.96
1777398943442,1581742,-0.77,-0.53,0.31,-21.12,557.43,-162.54
1777398943452,1581752,-0.47,-0.66,0.31,-86.12,515.08,-150.27
1777398943462,1581762,-0.29,-0.78,0.39,-136.84,431.46,-113.65
1777398943472,1581772,-0.18,-0.83,0.42,-178.77,271.61,-67.63
1777398943482,1581782,-0.27,-0.95,0.20,-190.37,33.20,-26.06
1777398943492,1581792,-0.44,-1.05,-0.22,-146.18,-240.91,1.77
1777398943502,1581802,-0.51,-0.91,-0.70,-58.41,-482.48,12.76
1777398943512,1581812,-0.47,-0.67,-1.09,19.59,-638.49,16.78
1777398943522,1581822,-0.42,-0.50,-1.35,61.22,-695.25,23.74
1777398943532,1581832,-0.31,-0.42,-1.61,85.88,-658.94,32.84
1777398943542,1581842,-0.22,-0.35,-1.80,113.65,-527.22,45.59
1777398943552,1581852,-0.25,-0.37,-1.73,148.99,-300.35,56.88
1777398943562,1581862,-0.63,-0.48,-1.26,172.91,-10.07,49.56
1777398943572,1581872,-1.12,-0.62,-0.52,159.91,263.67,14.77
1777398943582,1581882,-1.31,-0.71,0.07,115.42,440.80,-39.31
1777398943592,1581892,-1.19,-0.65,0.25,61.95,512.70,-89.78
1777398943602,1581902,-0.87,-0.54,0.15,10.31,527.53,-119.75
1777398943622,1581922,-0.46,-0.77,0.09,-104.61,427.92,-77.15
1777398943643,1581942,-0.20,-0.75,0.31,-170.35,17.64,-22.52
1777398943662,1581962,-0.48,-0.98,-0.79,-65.31,-536.87,37.72
1777398943682,1581982,-0.46,-0.59,-1.24,46.75,-768.13,67.63
1777398943693,1581992,-0.43,-0.46,-1.42,63.84,-744.57,94.54
1777398943703,1582002,-0.39,-0.35,-1.60,83.44,-622.86,119.32
1777398943712,1582012,-0.37,-0.36,-1.68,110.60,-399.78,127.69
1777398943722,1582022,-0.68,-0.50,-1.39,132.81,-94.24,111.94
1777398943732,1582032,-1.20,-0.66,-0.75,128.78,220.03,68.36
1777398943744,1582042,-1.59,-0.65,-0.18,102.78,445.92,-0.06
1777398943754,1582052,-1.59,-0.48,-0.02,73.91,551.94,-71.29
1777398943762,1582062,-1.35,-0.37,-0.07,48.71,585.27,-118.47
1777398943772,1582072,-1.00,-0.39,-0.24,19.41,589.17,-136.78
1777398943782,1582082,-0.68,-0.57,-0.42,-10.68,581.67,-132.81
1777398943792,1582092,-0.51,-0.82,-0.29,-31.86,562.19,-114.75
1777398943803,1582102,-0.40,-0.89,0.17,-49.26,489.14,-91.25
1777398943812,1582112,-0.26,-0.79,0.54,-76.48,309.75,-65.61
1777398943822,1582122,-0.28,-0.83,0.47,-101.68,26.61,-33.20
1777398943832,1582132,-0.41,-0.97,-0.13,-91.55,-297.49,-0.61
1777398943842,1582142,-0.52,-0.89,-0.69,-41.38,-561.46,22.71
1777398943852,1582152,-0.57,-0.72,-1.00,6.16,-714.23,39.86
1777398943862,1582162,-0.56,-0.62,-1.12,24.72,-765.87,57.92
1777398943872,1582172,-0.52,-0.41,-1.30,24.54,-737.67,76.11
1777398943882,1582182,-0.43,-0.32,-1.58,30.27,-629.58,87.65
1777398943892,1582192,-0.38,-0.40,-1.74,58.17,-422.12,85.57
1777398943902,1582202,-0.61,-0.54,-1.57,103.27,-125.37,57.19
1777398943912,1582212,-1.12,-0.66,-0.90,139.40,199.71,-0.37
1777398943922,1582222,-1.56,-0.58,-0.12,145.57,450.99,-73.61
1777398943932,1582232,-1.62,-0.42,0.34,121.09,572.57,-135.74
1777398943942,1582242,-1.32,-0.28,0.39,71.47,596.68,-173.16
1777398943962,1582262,-0.43,-0.50,-0.14,-75.01,533.02,-136.29
1777398943982,1582282,-0.19,-0.77,0.68,-135.07,213.68,-60.00
1777398944002,1582302,-0.44,-1.01,-0.47,-105.41,-435.55,15.32
1777398944022,1582322,-0.62,-0.68,-1.16,17.88,-788.21,60.85
1777398944032,1582332,-0.68,-0.57,-1.19,31.19,-819.15,86.91
1777398944044,1582342,-0.63,-0.36,-1.32,30.82,-783.45,107.12
1777398944052,1582352,-0.52,-0.30,-1.53,39.61,-670.59,115.54
1777398944062,1582362,-0.42,-0.42,-1.59,67.81,-456.85,107.73
1777398944072,1582372,-0.63,-0.55,-1.43,104.06,-157.47,73.85
1777398944082,1582382,-1.12,-0.65,-0.92,131.04,173.46,12.39
1777398944092,1582392,-1.57,-0.59,-0.27,135.99,445.68,-63.35
1777398944102,1582402,-1.79,-0.49,0.22,121.40,601.93,-128.36
1777398944112,1582412,-1.62,-0.35,0.42,83.19,655.88,-172.61
1777398944122,1582422,-1.17,-0.27,0.20,20.63,653.32,-194.15
1777398944132,1582432,-0.64,-0.36,-0.28,-45.23,642.15,-189.39
1777398944142,1582442,-0.38,-0.66,-0.49,-87.65,641.17,-161.13
1777398944153,1582452,-0.35,-0.94,-0.10,-98.21,614.81,-122.68
1777398944162,1582462,-0.25,-0.92,0.47,-99.61,488.95,-89.23
1777398944172,1582472,-0.12,-0.84,0.63,-110.96,230.59,-60.12
1777398944182,1582482,-0.14,-0.93,0.13,-107.97,-106.51,-26.92
1777398944194,1582492,-0.21,-1.03,-0.62,-60.85,-418.27,6.04
1777398944203,1582502,-0.31,-0.83,-0.96,5.80,-620.24,31.80
1777398944212,1582512,-0.40,-0.64,-1.07,38.45,-718.69,55.24
1777398944222,1582522,-0.44,-0.57,-1.04,31.86,-742.31,80.75
1777398944232,1582532,-0.43,-0.43,-1.12,17.64,-710.94,106.14
1777398944242,1582542,-0.40,-0.30,-1.24,18.55,-615.72,123.54
1777398944252,1582552,-0.37,-0.33,-1.43,38.02,-442.87,123.29
1777398944262,1582562,-0.54,-0.51,-1.39,70.86,-186.34,102.84
1777398944272,1582572,-1.00,-0.60,-1.02,96.44,117.00,56.52
1777398944282,1582582,-1.48,-0.59,-0.44,95.83,379.94,-11.78
1777398944293,1582592,-1.67,-0.53,-0.08,73.18,600.59,-126.04
1777398944312,1582612,-0.95,-0.22,-0.36,-65.00,635.74,-139.83
1777398944332,1582632,-0.18,-0.90,-0.62,-72.20,623.35,-62.62
1777398944352,1582652,-0.18,-0.77,0.75,-46.39,237.49,-22.95
1777398944372,1582672,-0.47,-0.97,-0.51,-32.78,-476.01,10.44
1777398944383,1582682,-0.65,-0.80,-0.87,20.45,-694.03,22.64
1777398944392,1582692,-0.67,-0.62,-1.05,57.80,-799.01,32.35
1777398944403,1582702,-0.62,-0.47,-1.11,61.28,-812.68,43.09
1777398944412,1582712,-0.44,-0.31,-1.33,51.57,-753.60,53.65
1777398944422,1582722,-0.22,-0.29,-1.60,60.18,-606.02,65.00
1777398944432,1582732,-0.21,-0.41,-1.65,95.09,-350.59,72.57
1777398944443,1582742,-0.65,-0.53,-1.23,132.69,-19.23,54.20
1777398944452,1582752,-1.26,-0.63,-0.47,144.59,294.68,2.99
1777398944462,1582762,-1.63,-0.59,0.16,125.55,500.92,-67.32
1777398944472,1582772,-1.59,-0.54,0.46,81.91,586.00,-131.47
1777398944482,1582782,-1.17,-0.44,0.41,21.00,596.07,-175.29
1777398944492,1582792,-0.53,-0.23,0.03,-46.08,580.87,-191.41
1777398944502,1582802,-0.00,-0.30,-0.53,-102.29,571.78,-169.13
1777398944512,1582812,0.15,-0.62,-0.64,-124.88,571.59,-118.41
1777398944522,1582822,0.05,-0.86,-0.12,-118.47,525.70,-63.72
1777398944532,1582832,-0.07,-0.94,0.48,-110.72,351.87,-24.66
1777398944543,1582842,-0.15,-0.90,0.44,-103.64,40.22,-0.31
1777398944552,1582852,-0.36,-0.97,-0.21,-73.06,-317.63,22.34
1777398944562,1582862,-0.54,-0.86,-0.82,-21.67,-604.06,41.87
1777398944572,1582872,-0.70,-0.61,-1.15,13.18,-778.26,56.03
1777398944582,1582882,-0.71,-0.57,-1.31,18.98,-857.30,74.65
1777398944593,1582892,-0.82,-0.51,-1.14,12.45,-864.07,96.01
1777398944602,1582902,-0.66,-0.37,-1.08,1.40,-829.10,116.82
1777398944612,1582912,-0.45,-0.26,-1.22,-4.33,-735.05,134.52
1777398944622,1582922,-0.28,-0.25,-1.37,5.92,-547.30,145.02
1777398944632,1582932,-0.41,-0.51,-1.48,31.80,-267.58,104.37
1777398944652,1582952,-1.45,-0.67,-0.82,136.23,589.60,-44.92
1777398944672,1582972,-2.01,-0.11,0.13,112.00,696.84,-167.11
1777398944694,1582992,-0.55,-0.19,-0.48,5.00,650.21,-168.95
1777398944712,1583012,-0.40,-0.97,0.39,-16.24,525.33,-76.84
1777398944722,1583022,-0.35,-0.86,0.82,-35.28,311.40,-49.74
1777398944732,1583032,-0.39,-0.76,0.66,-69.95,-1.53,-28.02
1777398944742,1583042,-0.61,-0.86,0.03,-78.55,-336.43,-6.84
1777398944752,1583052,-0.69,-0.74,-0.68,-52.92,-603.70,5.49
1777398944762,1583062,-0.68,-0.57,-1.17,-30.76,-755.49,14.95
1777398944772,1583072,-0.64,-0.47,-1.31,-27.71,-799.32,32.78
1777398944782,1583082,-0.60,-0.34,-1.37,-31.56,-766.42,55.91
1777398944792,1583092,-0.43,-0.20,-1.73,-26.12,-669.25,73.12
1777398944803,1583102,-0.35,-0.32,-1.97,2.99,-474.12,76.29
1777398944812,1583112,-0.44,-0.57,-1.95,63.11,-177.12,61.04
1777398944822,1583122,-0.94,-0.64,-1.32,128.17,162.60,18.25
1777398944832,1583132,-1.47,-0.55,-0.50,165.34,437.38,-43.58
1777398944842,1583142,-1.75,-0.47,0.14,164.06,582.34,-107.18
1777398944853,1583152,-1.61,-0.44,0.48,128.97,616.46,-163.33
