host_time_ms,arduino_time_ms,ax,ay,az,gx,gy,gz
1777398951921,1583162,-1.19,-0.49,0.55,64.09,588.01,-206.18
1777398951922,1583172,-0.46,-0.28,0.19,-15.81,545.47,-228.27
1777398951922,1583182,0.20,-0.09,-0.43,-90.82,522.46,-209.23
1777398951922,1583192,0.39,-0.41,-0.74,-134.28,525.09,-139.83
1777398951923,1583202,0.16,-0.86,-0.29,-135.38,507.51,-56.95
1777398951923,1583212,-0.04,-0.98,0.28,-121.28,378.54,-3.05
1777398951923,1583222,-0.13,-0.88,0.40,-115.23,121.34,16.48
1777398951924,1583232,-0.27,-0.80,-0.04,-105.22,-193.24,25.70
1777398951924,1583242,-0.41,-0.76,-0.74,-75.26,-472.47,33.94
1777398951924,1583252,-0.47,-0.64,-1.23,-38.39,-644.65,40.77
1777398951924,1583262,-0.57,-0.37,-1.37,-14.71,-711.18,47.73
1777398951925,1583272,-0.52,-0.21,-1.67,-5.25,-699.77,61.46
1777398951925,1583282,-0.39,-0.14,-2.14,6.04,-403.99,68.48
1777398951925,1583302,-0.54,-0.46,-2.32,193.60,275.82,35.46
1777398951925,1583322,-1.77,-0.50,0.47,176.88,587.22,-87.59
1777398951926,1583342,-0.65,-0.66,0.50,6.10,495.36,-176.82
1777398951926,1583362,0.47,-0.28,-0.07,-157.35,386.78,-173.52
1777398951927,1583372,0.64,-0.29,-0.29,-208.56,318.73,-105.10
1777398951927,1583382,0.36,-0.68,-0.17,-222.53,196.29,-11.60
1777398951928,1583392,-0.15,-1.10,0.01,-193.05,-17.76,55.42
1777398951928,1583402,-0.57,-0.92,-0.10,-131.47,-294.43,68.36
1777398951928,1583412,-0.81,-0.55,-0.54,-85.39,-553.83,52.37
1777398951928,1583422,-1.10,-0.19,-0.78,-81.36,-731.75,29.97
1777398951929,1583432,-1.27,-0.02,-1.19,-98.63,-824.71,10.93
1777398951929,1583442,-1.19,0.08,-1.65,-119.75,-839.23,-14.28
1777398951929,1583452,-0.90,0.07,-2.47,-102.54,-762.21,-45.17
1777398951930,1583462,-0.35,-0.29,-2.93,-21.06,-539.55,-58.59
1777398951930,1583472,-0.18,-0.45,-2.64,122.74,-182.37,-56.82
1777398951930,1583482,-0.68,-0.26,-1.66,266.60,202.88,-43.70
1777398951930,1583492,-1.46,-0.29,-0.56,336.85,494.69,-29.79
1777398951931,1583502,-1.93,-0.43,0.56,306.70,630.74,-44.37
1777398951931,1583512,-1.73,-0.50,1.22,205.75,611.69,-90.58
1777398951931,1583522,-1.07,-0.53,1.06,79.71,504.88,-140.44
1777398951932,1583532,-0.31,-0.46,0.51,-41.50,405.76,-170.53
1777398951932,1583542,0.22,-0.34,-0.02,-131.53,347.60,-164.86
1777398951932,1583552,0.42,-0.35,-0.36,-178.28,306.21,-117.13
1777398951933,1583562,0.31,-0.55,-0.36,-184.14,245.06,-44.19
1777398951933,1583572,0.02,-0.82,-0.09,-162.35,119.26,17.88
1777398951933,1583582,-0.32,-0.94,0.05,-125.98,-86.61,45.35
1777398951933,1583592,-0.52,-0.64,-0.19,-91.43,-326.78,37.54
1777398951934,1583602,-0.70,-0.34,-0.68,-84.11,-531.13,20.75
1777398951934,1583612,-0.85,-0.21,-1.15,-94.60,-656.49,12.45
1777398951934,1583622,-0.91,-0.11,-1.52,-98.88,-699.22,-15.69
1777398951934,1583642,-0.60,-0.16,-2.24,45.59,-348.21,-42.91
1777398951935,1583662,-0.36,-0.38,-1.16,219.85,163.39,-31.98
1777398951935,1583682,-1.31,-0.39,0.22,200.20,444.34,-47.18
1777398951935,1583702,-0.87,-0.49,0.45,27.40,402.89,-88.26
1777398951935,1583712,-0.51,-0.54,0.20,-56.46,356.57,-95.83
1777398951936,1583722,-0.28,-0.53,-0.07,-118.59,317.57,-92.29
1777398951936,1583732,-0.10,-0.39,-0.34,-157.65,282.71,-76.54
1777398951936,1583742,-0.08,-0.40,-0.51,-174.87,239.26,-47.30
1777398951936,1583752,-0.19,-0.53,-0.58,-169.25,174.19,-17.46
1777398951936,1583762,-0.31,-0.67,-0.60,-141.11,80.87,-2.81
1777398951937,1583772,-0.35,-0.66,-0.71,-100.28,-28.81,-7.75
1777398951937,1583782,-0.33,-0.53,-0.88,-61.95,-127.56,-22.34
1777398951937,1583792,-0.30,-0.37,-1.02,-41.26,-195.19,-35.34
1777398951937,1583802,-0.26,-0.34,-1.19,-37.41,-229.74,-40.22
1777398951938,1583812,-0.26,-0.35,-1.26,-37.90,-230.71,-39.98
1777398951938,1583822,-0.28,-0.34,-1.22,-36.93,-208.62,-36.93
1777398951938,1583832,-0.28,-0.32,-1.14,-36.01,-178.77,-32.04
1777398951938,1583842,-0.26,-0.29,-1.09,-35.22,-148.74,-26.31
1777398951938,1583852,-0.31,-0.33,-1.02,-30.46,-120.54,-18.68
1777398951939,1583862,-0.38,-0.41,-0.94,-18.74,-98.02,-13.31
1777398951939,1583872,-0.44,-0.43,-0.84,-4.09,-83.44,-12.08
1777398951939,1583882,-0.48,-0.41,-0.76,6.16,-76.29,-13.61
1777398951939,1583892,-0.50,-0.38,-0.75,8.85,-73.91,-16.11
1777398951939,1583902,-0.51,-0.37,-0.76,4.70,-70.37,-18.43
1777398951940,1583912,-0.52,-0.36,-0.76,-2.62,-63.35,-17.70
1777398951940,1583922,-0.55,-0.38,-0.75,-11.23,-54.44,-14.34
1777398951940,1583932,-0.58,-0.40,-0.74,-20.51,-46.88,-10.86
1777398951940,1583942,-0.62,-0.42,-0.73,-28.87,-41.69,-8.79
1777398951940,1583952,-0.66,-0.41,-0.72,-36.38,-38.45,-9.34
1777398951941,1583962,-0.67,-0.40,-0.74,-41.81,-39.00,-13.43
1777398951941,1583972,-0.65,-0.41,-0.80,-43.33,-41.44,-22.46
1777398951941,1583992,-0.60,-0.40,-0.86,-32.17,-32.29,-22.77
1777398951941,1584012,-0.53,-0.36,-0.87,-29.79,-21.12,-18.19
1777398951942,1584032,-0.53,-0.35,-0.77,-32.96,-17.40,-10.13
1777398951942,1584052,-0.49,-0.28,-0.78,-39.06,-42.72,2.32
1777398951942,1584062,-0.49,-0.29,-0.82,-36.56,-61.95,10.01
1777398951942,1584072,-0.51,-0.32,-0.86,-27.28,-78.80,14.04
1777398951942,1584082,-0.53,-0.32,-0.90,-12.39,-89.29,11.05
1777398951943,1584092,-0.53,-0.30,-0.89,3.91,-91.25,1.59
1777398951943,1584102,-0.52,-0.27,-0.85,18.25,-86.49,-10.31
1777398951943,1584112,-0.53,-0.26,-0.76,28.26,-80.63,-20.51
1777398951943,1584122,-0.53,-0.23,-0.68,33.63,-79.53,-26.49
1777398951943,1584132,-0.53,-0.24,-0.65,37.05,-83.98,-26.98
1777398951944,1584142,-0.55,-0.29,-0.60,40.04,-90.52,-24.41
1777398951944,1584152,-0.58,-0.31,-0.54,42.85,-98.94,-22.22
1777398951944,1584162,-0.60,-0.32,-0.51,45.23,-110.47,-21.61
1777398951944,1584172,-0.61,-0.34,-0.49,47.06,-122.62,-22.03
1777398951944,1584182,-0.61,-0.34,-0.47,48.34,-133.73,-22.52
1777398951945,1584192,-0.61,-0.35,-0.46,48.34,-142.46,-21.61
1777398951945,1584202,-0.61,-0.36,-0.46,47.00,-148.01,-18.74
1777398951945,1584212,-0.61,-0.37,-0.47,43.82,-148.13,-13.98
1777398951945,1584222,-0.64,-0.38,-0.45,39.00,-142.64,-8.79
1777398951945,1584232,-0.69,-0.38,-0.44,33.02,-134.22,-5.86
1777398951945,1584242,-0.75,-0.41,-0.42,26.86,-125.73,-6.35
1777398951946,1584252,-0.79,-0.42,-0.42,22.28,-117.68,-10.25
1777398951946,1584262,-0.81,-0.43,-0.42,20.26,-110.11,-15.63
1777398951946,1584272,-0.81,-0.43,-0.43,20.08,-101.50,-20.75
1777398951946,1584282,-0.81,-0.44,-0.41,20.81,-90.82,-23.13
1777398951946,1584292,-0.81,-0.45,-0.38,22.09,-80.26,-21.42
1777398951947,1584302,-0.81,-0.46,-0.37,23.07,-72.63,-17.40
1777398951947,1584312,-0.82,-0.48,-0.37,24.41,-65.86,-12.45
1777398951947,1584332,-0.86,-0.51,-0.29,27.77,-52.73,-5.31
1777398951947,1584352,-0.87,-0.51,-0.23,29.11,-57.01,-7.32
1777398951947,1584372,-0.86,-0.49,-0.21,30.03,-56.09,-9.89
1777398951947,1584392,-0.83,-0.46,-0.18,33.45,-48.16,-12.94
1777398951948,1584402,-0.81,-0.45,-0.15,33.75,-42.36,-13.37
1777398951948,1584412,-0.79,-0.46,-0.13,32.17,-36.50,-12.45
1777398951948,1584422,-0.78,-0.47,-0.10,29.97,-31.25,-10.80
1777398951948,1584432,-0.77,-0.48,-0.08,28.63,-28.02,-8.36
1777398951948,1584442,-0.78,-0.48,-0.06,28.26,-26.49,-5.74
1777398951949,1584452,-0.78,-0.47,-0.05,28.38,-25.51,-2.87
1777398951949,1584462,-0.78,-0.48,-0.04,27.77,-24.35,-0.06
1777398951949,1584472,-0.80,-0.50,-0.01,26.98,-23.80,2.20
1777398951949,1584482,-0.82,-0.52,0.02,26.92,-24.29,2.87
1777398951949,1584492,-0.84,-0.53,0.04,26.61,-26.55,1.83
1777398951949,1584502,-0.85,-0.51,0.03,25.57,-30.21,-0.55
1777398951950,1584512,-0.83,-0.49,0.00,23.80,-32.71,-2.44
1777398951950,1584522,-0.83,-0.49,-0.01,20.75,-32.29,-2.32
1777398951950,1584532,-0.84,-0.49,-0.04,16.91,-29.17,-0.37
1777398951950,1584542,-0.87,-0.51,-0.03,13.00,-23.13,2.69
1777398951950,1584552,-0.89,-0.52,-0.04,11.78,-17.76,4.94
1777398951950,1584562,-0.93,-0.53,-0.04,12.21,-14.83,4.70
1777398951951,1584572,-0.95,-0.58,-0.07,17.58,-14.59,2.81
1777398951951,1584582,-0.97,-0.55,-0.11,29.17,-15.93,-4.03
1777398951951,1584592,-0.98,-0.53,-0.13,41.63,-15.99,-12.39
1777398951951,1584602,-0.77,-0.43,-0.15,55.11,-14.77,-17.52
1777398951951,1584612,-0.98,-0.47,-0.10,56.52,-12.82,-15.99
1777398951952,1584622,-1.02,-0.56,-0.00,48.16,-13.79,-18.92
1777398951952,1584632,-0.93,-0.46,0.14,38.70,-20.51,-33.45
1777398951952,1584642,-0.89,-0.44,0.13,15.38,-32.10,-41.75
1777398951952,1584652,-0.87,-0.44,0.05,-3.11,-43.88,-40.10
1777398951952,1584662,-0.86,-0.49,-0.02,-10.56,-51.03,-29.97
1777398951953,1584682,-0.90,-0.53,-0.11,7.69,-57.98,-36.32
1777398951953,1584702,-0.84,-0.34,-0.27,45.90,-50.90,-48.22
1777398951953,1584722,-0.82,-0.42,0.09,31.80,-40.71,-48.71
1777398951953,1584742,-0.80,-0.61,0.05,4.27,-60.79,-39.67
1777398951953,1584752,-0.76,-0.67,0.01,3.48,-66.16,-35.52
1777398951953,1584762,-0.77,-0.60,-0.02,3.54,-65.43,-35.10
1777398951954,1584772,-0.77,-0.53,-0.07,4.88,-62.81,-33.14
1777398951954,1584782,-0.75,-0.49,-0.17,5.49,-59.51,-31.68
1777398951954,1584792,-0.76,-0.38,-0.21,7.63,-52.31,-29.30
1777398951954,1584802,-0.73,-0.51,-0.33,31.07,-42.11,-16.91
1777398951954,1584812,-0.81,-0.48,-0.27,40.28,-26.37,-10.19
1777398951954,1584822,-0.92,-0.53,-0.08,31.25,-15.32,-9.09
1777398951955,1584832,-0.99,-0.54,0.13,17.76,-18.98,-10.74
1777398951955,1584842,-0.99,-0.52,0.22,9.58,-38.15,-12.27
1777398951955,1584852,-0.89,-0.49,0.22,5.25,-63.35,-9.95
1777398951955,1584862,-0.78,-0.48,0.15,0.12,-81.97,-3.54
1777398951955,1584872,-0.67,-0.47,0.02,-3.66,-88.87,7.14
1777398951955,1584882,-0.60,-0.48,-0.11,-6.59,-80.93,20.14
1777398951956,1584892,-0.57,-0.51,-0.13,-9.28,-60.12,33.33
1777398951956,1584902,-0.54,-0.61,-0.09,-13.55,-34.24,44.49
1777398951956,1584912,-0.58,-0.67,0.05,-13.85,-10.19,50.78
1777398951956,1584922,-0.63,-0.69,0.19,-9.77,4.82,52.19
1777398951956,1584932,-0.67,-0.64,0.24,-2.26,8.97,49.99
1777398951956,1584942,-0.65,-1.09,-0.02,3.72,9.46,42.91
1777398951957,1584952,-0.78,-0.37,0.24,8.00,23.62,21.00
1777398951957,1584962,-0.66,-0.38,0.18,27.89,29.66,23.44
1777398951957,1584972,-0.67,-0.43,0.07,34.24,35.22,31.92
1777398951957,1584982,-0.78,-0.35,0.03,29.79,51.27,37.17
1777398951957,1584992,-0.83,-0.36,0.02,28.50,67.32,43.95
1777398951957,1585002,-0.94,-0.45,0.10,25.09,80.14,46.26
1777398951957,1585022,-1.12,-0.56,0.22,41.08,40.71,1.89
1777398951958,1585042,-0.94,-0.41,0.20,36.44,8.67,-11.90
1777398951958,1585062,-0.87,-0.45,0.15,23.01,-10.62,-5.55
1777398951958,1585082,-0.84,-0.52,0.07,7.63,-11.47,-3.66
1777398951958,1585092,-0.85,-0.51,0.08,9.89,-7.26,-5.74
1777398951958,1585102,-0.84,-0.52,0.12,17.70,-0.61,-6.77
1777398951958,1585112,-0.88,-0.54,0.22,27.10,7.20,-7.87
1777398951958,1585122,-0.93,-0.59,0.31,35.64,12.45,-12.94
1777398951959,1585132,-0.91,-0.63,0.34,42.24,13.92,-23.74
1777398951959,1585142,-1.09,-0.48,0.24,44.37,12.94,-36.87
1777398951959,1585152,-1.10,-0.52,0.25,31.62,12.63,-38.57
1777398951959,1585162,-1.01,-0.55,0.26,13.85,9.83,-42.42
1777398951959,1585172,-0.92,-0.50,0.20,1.16,1.65,-48.28
1777398951959,1585182,-0.77,-0.51,0.07,-13.24,-8.97,-50.78
1777398951960,1585192,-0.67,-0.56,0.04,-29.91,-12.45,-53.59
1777398951960,1585202,-0.79,-0.48,0.04,-36.62,-11.72,-66.96
1777398951960,1585212,-0.87,-0.37,0.04,-30.03,-15.20,-83.50
1777398951960,1585222,-0.81,-0.43,0.04,-33.33,-34.97,-93.02
1777398951960,1585232,-0.77,-0.53,0.09,-36.68,-40.47,-86.98
1777398951960,1585242,-0.79,-0.54,0.13,-31.25,-36.44,-77.27
1777398951960,1585252,-0.81,-0.48,0.17,-17.46,-28.14,-70.19
1777398951961,1585262,-0.80,-0.40,0.15,6.16,-21.12,-69.95
1777398951961,1585272,-0.71,-0.28,0.11,41.20,-13.67,-73.55
1777398951961,1585282,-0.68,-0.31,0.08,82.58,-0.12,-72.39
1777398951961,1585292,-0.59,-0.50,0.09,114.93,14.40,-72.33
1777398951961,1585302,-0.58,-0.61,0.05,134.09,16.42,-74.83
1777398951962,1585312,-0.64,-0.66,0.02,133.00,-1.53,-72.69
1777398951962,1585322,-0.67,-0.58,-0.02,124.63,-26.43,-75.20
1777398951962,1585332,-0.65,-0.48,-0.02,120.67,-45.35,-79.10
1777398951962,1585342,-0.59,-0.43,0.02,125.24,-54.87,-79.35
1777398951962,1585352,-0.53,-0.42,0.08,138.55,-77.33,-86.61
1777398951962,1585372,-0.42,-0.33,0.10,185.42,-115.72,-104.06
1777398951962,1585392,-0.19,-0.73,0.22,184.88,-148.44,-108.34
1777398951963,1585412,-0.56,-1.08,0.54,148.93,-164.43,-71.96
1777398951963,1585432,-0.50,-0.87,0.60,131.10,-158.87,-47.36
1777398951963,1585442,-0.34,-0.71,0.61,133.24,-139.53,-37.96
1777398951963,1585452,-0.32,-0.57,0.55,136.72,-117.68,-39.73
1777398951963,1585462,-0.28,-0.54,0.55,136.78,-109.37,-49.44
1777398951963,1585472,-0.29,-0.48,0.56,131.10,-116.03,-60.12
1777398951963,1585482,-0.33,-0.57,0.64,116.88,-126.16,-60.49
1777398951964,1585492,-0.48,-0.75,0.78,100.65,-132.63,-60.97
1777398951964,1585502,-0.42,-0.80,0.87,93.81,-133.12,-68.73
1777398951964,1585512,-0.43,-0.84,0.89,88.32,-124.63,-66.10
1777398951964,1585522,-0.46,-0.85,0.88,82.46,-100.40,-59.57
1777398951964,1585532,-0.42,-0.85,0.86,73.30,-73.00,-50.90
1777398951964,1585542,-0.36,-0.82,0.88,61.83,-49.07,-39.79
1777398951965,1585552,-0.23,-0.79,0.94,55.48,-34.42,-33.33
1777398951965,1585562,-0.24,-0.58,0.92,60.61,-33.51,-38.76
1777398951965,1585572,-0.23,-0.37,0.77,64.70,-52.00,-47.30
1777398951965,1585582,-0.22,-0.33,0.69,55.91,-79.83,-55.97
1777398951965,1585592,-0.24,-0.35,0.77,45.10,-87.83,-63.48
1777398951965,1585602,-0.28,-0.43,0.82,46.08,-88.56,-60.49
1777398951965,1585612,-0.33,-0.48,0.87,52.61,-89.42,-52.49
1777398951966,1585622,-0.40,-0.53,0.92,53.89,-88.38,-45.47
1777398951966,1585632,-0.38,-0.57,1.03,52.37,-85.08,-40.22
1777398951966,1585642,-0.36,-0.61,1.06,51.27,-83.37,-36.74
1777398951966,1585652,-0.21,-0.67,1.11,52.67,-80.08,-28.81
1777398951966,1585662,-0.18,-0.87,1.61,64.03,-74.34,-22.16
1777398951966,1585672,-0.15,-0.37,1.20,104.43,-75.01,-14.89
1777398951966,1585682,-0.12,-0.26,0.93,133.67,-43.21,-0.79
1777398951967,1585692,-0.12,-0.33,1.06,135.50,-1.34,-24.84
1777398951967,1585712,-0.11,-0.34,0.90,83.37,-16.17,-23.32
1777398951967,1585732,-0.07,-0.30,0.92,88.56,-10.07,-3.17
1777398951967,1585752,-0.06,-0.28,0.92,109.62,-12.27,8.42
1777398951967,1585772,0.04,-0.27,0.99,65.31,-35.52,-2.26
1777398951967,1585782,0.25,-0.23,0.89,-52.67,-45.17,-36.87
1777398951967,1585792,0.29,-0.37,0.88,-79.71,-22.34,-46.75
1777398951968,1585802,0.06,-0.45,1.03,-59.20,7.45,-66.28
1777398951968,1585812,-0.15,-0.55,1.17,-35.28,7.08,-101.14
1777398951968,1585822,-0.27,-0.22,0.85,26.43,-5.62,-118.23
1777398951968,1585832,0.15,-0.13,1.08,68.18,5.37,-96.56
1777398951968,1585842,0.16,-0.09,0.74,96.68,-2.81,-79.41
1777398951968,1585852,0.16,0.00,0.88,158.14,-24.17,-64.70
1777398951968,1585862,0.01,-0.18,0.89,199.04,-60.06,-42.18
1777398951969,1585872,-0.16,-0.27,0.96,222.96,-73.00,-32.78
1777398951969,1585882,-0.36,-0.12,1.15,262.15,-28.20,-18.49
1777398951969,1585892,-0.40,-0.04,1.04,252.08,-6.84,-3.72
1777398951969,1585902,-0.16,-0.01,1.31,220.28,-7.26,17.40
1777398951969,1585912,-0.14,0.10,1.54,136.17,-4.03,14.89
1777398951969,1585922,-0.00,-0.02,1.02,10.68,-4.46,-6.96
1777398951969,1585932,0.07,0.08,1.05,-6.23,-4.39,-9.09
1777398951970,1585942,0.10,0.09,0.97,-11.78,-4.46,-2.26
1777398951970,1585952,0.15,0.05,0.96,-6.29,-5.74,12.15
1777398951970,1585962,-0.02,-0.45,0.66,4.70,-4.94,30.76
1777398951970,1585972,-0.15,0.30,1.50,58.72,-3.05,17.76
1777398951970,1585982,-0.11,0.15,1.12,18.62,-8.30,-3.97
1777398951970,1585992,0.01,0.01,1.00,2.75,-4.64,-5.31
1777398951970,1586002,0.01,0.00,1.00,2.62,-4.58,-4.88
1777398951970,1586012,0.01,-0.00,1.00,2.56,-4.64,-4.52
1777398951971,1586022,0.01,-0.00,1.01,2.69,-4.76,-4.52
1777398951971,1586032,0.00,-0.01,1.01,2.62,-4.82,-4.46
1777398951971,1586042,0.01,-0.00,1.00,2.44,-4.58,-7.20
1777398951971,1586062,0.01,0.00,1.00,2.32,-4.52,-5.13
1777398951971,1586082,0.01,-0.00,1.00,2.38,-4.58,-4.70
1777398951971,1586102,0.01,0.00,1.00,2.26,-4.64,-5.00
1777398951971,1586112,0.01,-0.00,1.00,2.38,-4.70,-4.88
1777398951971,1586122,0.01,-0.00,1.00,2.44,-4.64,-4.70
1777398951972,1586132,0.01,0.00,1.00,2.56,-4.58,-4.64
1777398951972,1586142,0.07,-0.24,1.01,2.50,-4.76,-6.29
1777398951972,1586152,-0.00,-0.04,1.01,2.75,-4.52,-29.48
1777398951972,1586162,-0.04,0.30,1.01,2.56,-4.33,-37.72
1777398951972,1586172,0.05,0.02,1.00,2.38,-4.33,-6.35
1777398951972,1586182,0.01,0.00,1.00,2.26,-4.58,0.12
1777398951972,1586192,0.01,0.01,1.00,2.38,-4.52,0.73
1777398951972,1586202,-0.01,-0.02,1.00,2.44,-4.70,2.56
1777398951973,1586212,0.01,-0.01,1.00,2.50,-4.76,0.31
1777398951973,1586222,0.01,-0.00,1.01,2.44,-4.58,-4.52
1777398951973,1586232,0.01,-0.00,1.00,2.38,-4.64,-4.76
1777398951973,1586242,0.01,0.00,1.00,2.44,-4.70,-4.76
1777398951973,1586252,0.01,-0.00,1.00,2.38,-4.70,-4.94
1777398951973,1586262,0.01,-0.00,1.00,2.32,-4.76,-5.19
1777398951973,1586272,0.01,-0.00,1.00,2.26,-4.76,-5.19
1777398951973,1586282,0.01,-0.00,1.00,2.32,-4.70,-5.13
1777398951974,1586292,0.01,-0.00,1.00,2.44,-4.70,-4.70
1777398951974,1586302,0.01,-0.00,1.00,2.62,-4.58,-4.21
1777398951974,1586312,0.01,-0.00,1.00,2.56,-4.52,-4.21
1777398951974,1586322,0.01,-0.00,1.00,2.56,-4.58,-4.33
1777398951974,1586332,0.01,-0.00,1.00,2.56,-4.58,-4.46
1777398951974,1586342,0.01,0.00,1.00,2.50,-4.64,-4.70
1777398951974,1586352,0.01,-0.00,1.00,2.38,-4.64,-4.88
1777398951974,1586362,0.01,-0.00,1.00,2.32,-4.64,-5.13
1777398951975,1586372,0.01,-0.00,1.00,2.26,-4.64,-5.19
1777398951975,1586382,0.01,-0.00,1.00,2.26,-4.64,-5.00
1777398951975,1586402,0.01,-0.00,1.00,2.44,-4.64,-4.70
1777398951975,1586422,0.01,-0.00,1.00,2.32,-4.52,-4.76
1777398951975,1586442,0.01,-0.00,1.00,2.50,-4.64,-4.70
1777398951975,1586462,0.01,-0.00,1.00,2.50,-4.70,-4.64
1777398951975,1586472,0.01,-0.00,1.00,2.32,-4.52,-5.07
1777398951975,1586482,0.01,-0.00,1.00,2.32,-4.58,-5.07
1777398951976,1586492,0.01,-0.00,1.00,2.32,-4.52,-4.94
1777398951976,1586502,0.01,-0.00,1.00,2.38,-4.64,-4.82
1777398951976,1586512,0.01,-0.00,1.00,2.44,-4.58,-4.52
1777398951976,1586522,0.01,-0.00,1.00,2.44,-4.52,-4.46
1777398951976,1586532,0.01,-0.00,1.00,2.50,-4.64,-4.39
1777398951976,1586542,0.01,-0.00,1.00,2.50,-4.70,-4.52
1777398951976,1586552,0.01,-0.00,1.00,2.50,-4.82,-4.70
1777398951976,1586562,0.01,-0.00,1.00,2.38,-4.76,-4.88
1777398951977,1586572,0.01,0.00,1.00,2.32,-4.64,-5.07
1777398951977,1586582,0.01,0.00,1.00,2.38,-4.64,-4.94
1777398951977,1586592,0.01,0.00,1.00,2.32,-4.58,-4.94
1777398951977,1586602,0.01,-0.00,1.00,2.26,-4.58,-4.94
1777398951977,1586612,0.01,0.00,1.00,2.26,-4.52,-5.19
1777398951977,1586622,0.01,-0.00,1.00,2.32,-4.64,-5.19
1777398951977,1586632,0.01,-0.00,1.00,2.38,-4.64,-5.07
1777398951977,1586642,0.01,-0.00,1.00,2.26,-4.64,-5.13
1777398951978,1586652,0.01,-0.00,1.00,2.26,-4.70,-5.13
1777398951978,1586662,0.01,-0.00,1.00,2.38,-4.58,-4.82
1777398951978,1586672,0.01,-0.00,1.00,2.56,-4.70,-4.39
1777398951978,1586682,0.01,-0.00,1.00,2.44,-4.64,-4.82
1777398951978,1586692,0.01,0.00,1.00,2.26,-4.58,-5.25
1777398951978,1586702,0.01,-0.00,1.00,2.44,-4.70,-5.00
1777398951978,1586712,0.01,-0.00,1.00,2.50,-4.76,-4.70
1777398951978,1586722,0.01,-0.00,1.00,2.56,-4.64,-4.52
1777398951978,1586732,0.01,-0.00,1.00,2.62,-4.64,-4.39
1777398951979,1586752,0.01,-0.00,1.00,2.56,-4.64,-4.52
1777398951979,1586772,0.01,-0.00,1.01,2.38,-4.64,-4.64
1777398951979,1586792,0.01,-0.00,1.01,2.44,-4.76,-4.94
1777398951979,1586802,0.01,0.00,1.00,2.32,-4.64,-5.00
1777398951979,1586812,0.01,-0.00,1.01,2.26,-4.58,-4.82
1777398951979,1586822,0.01,-0.00,1.00,2.38,-4.64,-4.76
1777398951979,1586832,0.01,-0.00,1.00,2.56,-4.76,-4.70
1777398951979,1586842,0.01,0.00,1.01,2.56,-4.64,-4.58
1777398951980,1586852,0.01,-0.00,1.00,2.62,-4.64,-4.39
1777398951980,1586862,0.01,-0.00,1.00,2.69,-4.64,-4.21
1777398951980,1586872,0.01,-0.00,1.00,2.69,-4.70,-4.21
1777398951980,1586882,0.01,-0.00,1.00,2.56,-4.70,-4.33
1777398951980,1586892,0.01,-0.00,1.00,2.44,-4.58,-4.70
1777398951980,1586902,0.01,0.00,1.00,2.26,-4.58,-5.19
1777398951980,1586912,0.01,0.00,1.00,2.38,-4.64,-5.00
1777398951980,1586922,0.01,-0.00,1.00,2.44,-4.64,-4.76
1777398951980,1586932,0.01,-0.00,1.00,2.32,-4.64,-4.82
1777398951981,1586942,0.01,-0.00,1.00,2.32,-4.70,-4.94
1777398951981,1586952,0.01,-0.00,1.00,2.32,-4.58,-4.94
1777398951981,1586962,0.01,-0.00,1.01,2.32,-4.64,-5.07
1777398951981,1586972,0.01,-0.00,1.00,2.32,-4.64,-4.94
1777398951981,1586982,0.01,-0.00,1.01,2.32,-4.64,-4.76
1777398951981,1586992,0.01,-0.00,0.99,2.44,-4.70,-4.52
1777398951981,1587002,0.01,0.00,1.01,2.56,-4.64,-4.15
1777398951981,1587012,0.01,-0.00,0.99,2.44,-4.52,-4.52
1777398951982,1587022,0.01,0.00,1.01,2.44,-4.64,-4.94
1777398951982,1587032,0.01,-0.00,1.00,2.50,-4.64,-4.88
1777398951982,1587042,0.01,-0.00,1.00,2.44,-4.64,-4.88
1777398951982,1587052,0.01,-0.00,1.00,2.44,-4.58,-4.76
1777398951982,1587062,0.01,0.00,1.00,2.44,-4.64,-4.64
1777398951982,1587072,0.01,0.00,1.00,2.44,-4.52,-5.07
1777398951982,1587092,0.01,-0.00,1.00,2.32,-4.58,-5.07
1777398951982,1587112,0.01,0.00,1.00,2.32,-4.52,-5.19
1777398951983,1587132,0.01,-0.00,1.00,2.26,-4.52,-5.13
1777398951983,1587152,0.01,0.00,1.00,2.32,-4.58,-5.13
1777398951983,1587162,0.01,-0.00,1.00,2.32,-4.58,-5.07
1777398951983,1587172,0.01,-0.00,1.00,2.38,-4.52,-5.07
1777398951983,1587182,0.01,-0.00,1.00,2.44,-4.58,-4.70
1777398951983,1587192,0.01,-0.00,1.00,2.56,-4.70,-4.27
1777398951983,1587202,0.01,-0.00,1.00,2.50,-4.58,-4.46
1777398951983,1587212,0.01,-0.00,1.00,2.50,-4.64,-4.58
1777398951984,1587222,0.01,-0.00,1.00,2.56,-4.64,-4.33
1777398951984,1587232,0.01,-0.00,1.00,2.69,-4.64,-4.15
1777398951984,1587242,0.01,0.00,1.00,2.62,-4.64,-4.46
1777398951984,1587252,0.01,-0.00,1.00,2.38,-4.58,-4.82
1777398951984,1587262,0.01,-0.00,1.00,2.44,-4.64,-4.70
1777398951984,1587272,0.01,-0.00,1.00,2.50,-4.58,-4.58
1777398951984,1587282,0.01,-0.00,1.00,2.44,-4.70,-4.64
1777398951984,1587292,0.01,-0.00,1.00,2.50,-4.64,-4.76
1777398951985,1587302,0.01,-0.00,1.00,2.50,-4.76,-4.70
1777398951985,1587312,0.01,0.00,1.01,2.50,-4.52,-4.70
1777398951985,1587322,-0.02,0.10,1.00,2.26,-4.70,-4.39
1777398951985,1587332,0.03,0.01,1.01,2.26,-4.64,6.77
1777398951985,1587342,0.02,-0.13,1.00,2.26,-4.70,12.63
1777398951985,1587352,0.01,-0.01,1.00,2.81,-4.70,-4.88
1777398951985,1587362,0.01,0.03,1.00,2.62,-4.76,-11.23
1777398951985,1587372,0.01,-0.00,1.00,2.50,-4.70,-7.87
1777398951986,1587382,0.01,-0.00,1.00,2.56,-4.64,-5.07
1777398951986,1587392,0.01,-0.00,1.00,2.62,-4.64,-4.52
1777398951986,1587402,0.01,0.00,1.00,2.50,-4.64,-4.70
1777398951986,1587412,0.01,-0.00,1.00,2.26,-4.58,-5.13
1777398951986,1587422,0.01,-0.00,1.00,2.32,-4.52,-4.52
1777398951986,1587442,0.01,-0.00,1.00,2.38,-4.64,-4.88
1777398951986,1587462,0.01,-0.00,1.00,2.50,-4.70,-4.64
1777398951986,1587482,0.01,-0.00,1.00,2.56,-4.76,-4.33
1777398951994,1587492,0.01,-0.00,1.00,2.62,-4.70,-4.33
1777398951994,1587502,0.01,0.00,1.00,2.56,-4.64,-4.52
1777398951994,1587512,0.01,-0.00,1.00,2.50,-4.58,-4.70
1777398951997,1587522,0.01,-0.00,1.00,2.38,-4.58,-5.00
1777398951997,1587532,0.01,-0.00,1.00,2.44,-4.58,-4.94
1777398951997,1587542,0.01,0.00,1.00,2.44,-4.64,-4.64
1777398951997,1587552,0.01,-0.00,1.00,2.44,-4.58,-4.64
1777398951997,1587562,0.01,-0.00,1.00,2.50,-4.76,-4.70
1777398951997,1587572,0.01,-0.00,1.00,2.56,-4.64,-4.70
1777398951997,1587582,0.01,0.00,1.00,2.50,-4.64,-4.64
1777398951998,1587592,0.01,0.00,1.00,2.50,-4.64,-4.70
1777398951998,1587602,0.01,-0.00,1.00,2.50,-4.64,-4.70
1777398951998,1587612,0.01,0.00,1.00,2.56,-4.64,-4.52
1777398951998,1587622,0.01,-0.00,1.00,2.62,-4.70,-4.39
1777398951998,1587632,0.01,-0.00,1.00,2.56,-4.58,-4.39
1777398951998,1587642,0.01,-0.00,1.00,2.62,-4.70,-4.33
1777398951998,1587652,0.01,-0.00,1.00,2.62,-4.64,-4.33
1777398951998,1587662,0.01,-0.00,1.00,2.56,-4.70,-4.33
1777398951999,1587672,0.01,-0.00,1.00,2.62,-4.76,-4.33
1777398951999,1587682,0.01,-0.00,1.00,2.56,-4.64,-4.27
1777398952000,1587692,0.01,-0.00,1.00,2.50,-4.58,-4.64
1777398952002,1587702,0.01,-0.00,1.00,2.32,-4.58,-5.07
1777398952002,1587712,0.01,0.00,1.00,2.32,-4.58,-5.07
1777398952002,1587722,0.01,0.00,1.00,2.32,-4.58,-5.13
1777398952002,1587732,0.01,-0.00,1.00,2.56,-4.70,-4.76
1777398952003,1587742,0.01,-0.00,1.00,2.56,-4.58,-4.27
1777398952003,1587752,0.01,0.00,1.00,2.50,-4.52,-4.70
1777398952003,1587762,0.01,-0.00,1.00,2.32,-4.58,-4.94
1777398952003,1587782,0.01,-0.00,1.00,2.50,-4.58,-4.58
1777398952003,1587802,0.01,-0.00,1.00,2.38,-4.70,-4.58
1777398952003,1587822,0.01,-0.00,1.00,2.38,-4.52,-4.88
1777398952003,1587842,0.04,-0.10,1.00,2.50,-4.52,-4.88
1777398952003,1587852,0.06,-0.20,0.99,2.26,-4.64,-5.86
1777398952004,1587862,0.15,-0.37,1.00,2.93,-4.09,-4.27
1777398952004,1587872,0.18,-0.45,1.00,2.26,-4.76,0.06
1777398952004,1587882,0.15,0.19,1.00,1.83,-5.00,7.75
1777398952004,1587892,0.11,0.51,1.02,-0.92,-5.92,27.59
1777398952004,1587902,0.23,0.60,1.08,-2.93,-4.03,35.22
1777398952004,1587912,-0.08,0.54,1.04,-16.05,-1.34,27.47
1777398952005,1587922,-0.17,0.25,1.09,-21.79,9.03,51.70
1777398952005,1587932,-0.10,-0.02,1.29,-33.69,26.43,71.53
1777398952010,1587942,-0.06,-0.06,1.35,-62.93,26.25,54.02
1777398952011,1587952,0.02,-0.17,1.29,-81.85,19.59,36.07
1777398952012,1587962,-0.20,-0.30,1.36,-61.16,29.24,35.22
1777398952012,1587972,-0.40,-0.27,1.29,-3.11,51.94,48.52
1777398952012,1587982,-0.37,-0.23,1.27,22.64,71.11,60.67
1777398952012,1587992,-0.18,-0.25,1.36,3.23,83.13,62.68
1777398952013,1588002,-0.21,-0.14,1.39,-15.99,100.28,61.34
1777398952013,1588012,-0.42,-0.04,1.37,-14.71,126.95,76.17
1777398952013,1588022,-0.47,-0.05,1.38,-2.99,155.52,107.73
1777398952013,1588032,-0.43,-0.02,1.37,12.45,180.54,136.60
1777398952013,1588042,-0.41,-0.04,1.34,22.77,201.97,151.61
1777398952013,1588052,-0.27,-0.28,1.41,26.98,221.98,152.47
1777398952014,1588062,-0.23,-0.34,1.34,39.12,239.50,131.65
1777398952017,1588072,-0.17,-0.42,1.11,49.01,251.53,97.60
1777398952021,1588082,-0.10,-0.37,0.90,51.57,259.46,56.40
1777398952021,1588092,-0.17,-0.14,0.67,43.33,260.99,18.31
1777398952021,1588102,-0.27,-0.06,0.59,30.33,259.40,-3.30
1777398952021,1588112,-0.25,0.15,0.53,8.85,232.12,-11.11
1777398952021,1588132,-0.41,0.39,0.34,-78.37,179.08,29.54
1777398952022,1588152,-0.55,0.39,0.21,-89.48,109.99,66.53
1777398952022,1588172,-0.35,0.03,0.23,-84.90,48.40,68.73
1777398952022,1588182,-0.31,-0.23,0.36,-69.15,37.23,69.52
1777398952022,1588192,-0.50,-0.22,0.39,-61.83,29.11,52.92
1777398952022,1588202,-0.48,0.07,0.20,-66.10,22.34,23.74
1777398952022,1588212,-0.58,-0.04,0.27,-103.52,66.71,-5.25
1777398952022,1588222,-0.93,-0.10,0.35,-134.77,134.09,-28.63
1777398952022,1588232,-0.75,-0.29,1.16,-151.37,134.40,-49.80
1777398952023,1588242,-0.76,-0.37,1.07,-159.30,75.87,-62.99
1777398952023,1588252,-0.72,-0.31,0.68,-174.68,10.19,-77.82
1777398952023,1588262,-0.63,-0.11,0.40,-184.08,-16.60,-98.33
1777398952023,1588272,-0.68,-0.05,0.46,-180.97,-12.70,-102.23
1777398952023,1588282,-0.74,-0.34,0.62,-160.22,-7.39,-29.79
1777398952024,1588292,-0.66,-0.34,0.45,-110.84,-13.31,35.89
1777398952024,1588302,-0.59,-0.22,0.33,-62.68,-19.41,39.12
1777398952024,1588312,-1.00,-1.02,1.96,-22.58,-43.82,29.97
1777398952026,1588322,-0.82,-0.41,0.67,39.25,-122.25,-6.71
1777398952026,1588332,-0.41,-0.06,0.54,30.88,-140.93,-24.29
1777398952027,1588342,-0.44,-0.18,0.59,7.93,-140.14,-15.75
1777398952028,1588352,-0.95,-0.23,0.60,-15.01,-140.32,-11.96
1777398952028,1588362,-1.01,0.58,0.76,-49.01,-131.77,-21.30
1777398952028,1588372,-0.82,0.27,1.05,-96.25,-132.45,-6.59
1777398952029,1588382,-0.61,-0.81,0.58,-111.82,-134.09,12.88
1777398952029,1588392,-0.39,-0.51,0.42,-74.95,-109.99,-0.24
1777398952029,1588402,-0.44,-0.37,0.23,-23.56,-73.97,-6.47
1777398952029,1588412,-0.46,-0.25,0.23,21.85,-22.83,-9.46
1777398952030,1588422,-0.39,0.25,0.38,52.19,21.12,-17.33
1777398952030,1588432,-0.51,0.18,0.73,24.54,66.10,-23.62
1777398952030,1588442,-0.61,-0.10,0.85,-13.24,90.64,-16.48
1777398952030,1588452,-0.56,-0.16,1.00,-22.46,80.51,-37.72
1777398952030,1588472,-0.38,-0.27,1.07,-108.15,18.37,-34.12
1777398952030,1588492,-0.58,-0.41,0.70,-92.90,-20.87,-0.55
1777398952030,1588512,-0.66,-0.43,0.77,-51.45,6.96,0.79
1777398952030,1588532,-0.77,-0.34,0.80,-42.42,37.23,-28.44
1777398952030,1588542,-0.71,-0.45,0.78,-44.43,62.87,-32.96
1777398952032,1588552,-0.76,-0.54,0.77,-41.81,78.80,-34.85
1777398952032,1588562,-0.76,-0.48,0.80,-44.80,83.74,-41.14
1777398952032,1588572,-0.85,-0.43,0.78,-50.72,79.16,-47.36
1777398952032,1588582,-0.82,-0.46,0.56,-59.75,78.31,-50.96
1777398952032,1588592,-0.58,-0.38,0.54,-71.11,84.59,-48.46
1777398952032,1588602,-0.65,-0.45,0.80,-81.12,90.21,-39.00
1777398952032,1588612,-0.87,-0.50,0.48,-88.81,75.74,-35.89
1777398952032,1588622,-0.82,-0.51,0.34,-96.44,70.80,-37.05
1777398952033,1588632,-0.77,-0.53,0.31,-91.92,83.07,-36.56
1777398952033,1588642,-0.75,-0.53,0.38,-83.13,93.20,-30.70
1777398952035,1588652,-0.67,-0.61,0.39,-73.67,94.73,-24.35
1777398952035,1588662,-0.82,-0.57,0.30,-66.77,90.88,-23.68
1777398952035,1588672,-0.85,-0.57,0.34,-68.36,89.36,-18.92
1777398952035,1588682,-0.73,-0.50,0.41,-68.24,84.59,-15.44
1777398952035,1588692,-0.72,-0.53,0.41,-71.72,75.99,-10.19
1777398952035,1588702,-0.70,-0.63,0.39,-73.91,68.54,-2.87
1777398952035,1588712,-0.68,-0.65,0.36,-70.98,67.44,1.04
1777398952036,1588722,-0.70,-0.60,0.33,-70.25,71.04,0.24
1777398952036,1588732,-0.75,-0.58,0.29,-72.45,79.22,-1.83
1777398952036,1588742,-0.76,-0.56,0.32,-76.17,91.67,-6.53
1777398952036,1588752,-0.78,-0.45,0.31,-81.97,99.49,-10.31
1777398952036,1588762,-0.75,-0.40,0.24,-88.13,105.04,-7.32
1777398952036,1588772,-0.83,-0.44,0.35,-104.31,113.22,-0.61
1777398952036,1588782,-0.83,-0.52,0.30,-114.44,109.50,8.67
1777398952036,1588792,-0.75,-0.66,0.16,-104.80,105.16,19.47
1777398952037,1588812,-0.77,-0.71,0.06,-106.32,109.74,-7.45
1777398952037,1588832,-0.79,-0.41,0.02,-95.95,102.17,-6.71
1777398952038,1588852,-0.81,-0.60,-0.13,-108.03,86.73,-4.39
1777398952038,1588872,-0.66,-0.62,-0.29,-113.46,72.75,-23.99
1777398952038,1588882,-0.65,-0.59,-0.34,-99.91,73.67,-19.71
1777398952038,1588892,-0.66,-0.54,-0.37,-86.91,80.93,-9.89
1777398952039,1588902,-0.69,-0.55,-0.36,-80.87,82.09,-4.82
1777398952039,1588912,-0.71,-0.55,-0.38,-75.01,79.83,-2.26
1777398952040,1588922,-0.75,-0.52,-0.39,-67.26,75.44,-6.41
1777398952040,1588932,-0.67,-0.59,-0.54,-54.75,71.29,-11.96
1777398952041,1588942,-0.69,-0.56,-0.54,-38.33,76.42,-16.48
1777398952042,1588952,-0.73,-0.58,-0.46,-18.49,78.67,-19.65
1777398952042,1588962,-0.72,-0.55,-0.47,-3.60,74.40,-22.77
1777398952043,1588972,-0.73,-0.55,-0.40,4.82,66.35,-25.57
1777398952043,1588982,-0.70,-0.54,-0.41,11.05,54.50,-24.29
1777398952043,1588992,-0.67,-0.53,-0.41,15.26,43.40,-20.81
1777398952043,1589002,-0.65,-0.49,-0.42,10.99,30.88,-19.17
1777398952045,1589012,-0.69,-0.48,-0.42,3.60,17.58,-21.00
1777398952047,1589022,-0.68,-0.47,-0.37,3.85,8.97,-19.65
1777398952047,1589032,-0.59,-0.31,-0.23,-0.31,-2.01,-21.55
1777398952049,1589042,-0.60,-0.36,-0.37,-5.31,-16.97,-17.82
1777398952056,1589052,-0.77,-0.50,-0.41,-19.23,-24.23,-14.77
1777398952062,1589062,-0.92,-0.66,-0.47,-27.04,-23.86,-26.43
1777398952071,1589072,-0.85,-0.71,-0.53,-31.56,-18.43,-39.00
1777398952071,1589082,-0.67,-0.59,-0.47,-20.20,-3.48,-36.68
1777398952071,1589092,-0.68,-0.54,-0.35,-19.47,5.07,-22.40
1777398952071,1589102,-0.69,-0.56,-0.29,-28.93,8.12,-12.33
1777398952071,1589112,-0.68,-0.58,-0.30,-43.33,3.48,-8.06
1777398952072,1589122,-0.73,-0.63,-0.44,-47.12,-4.03,-3.66
1777398952072,1589132,-0.74,-0.58,-0.51,-36.74,-6.84,-2.38
1777398952072,1589142,-0.77,-0.55,-0.46,-21.12,-5.74,-6.53
1777398952072,1589162,-0.68,-0.68,-0.53,3.60,9.03,-12.88
1777398952072,1589182,-0.66,-0.49,-0.36,4.46,21.24,-5.74
1777398952072,1589202,-0.67,-0.54,-0.39,-23.86,31.31,5.31
1777398952072,1589222,-0.68,-0.63,-0.38,-36.01,31.56,9.77
1777398952072,1589232,-0.67,-0.69,-0.42,-35.10,27.04,10.25
1777398952073,1589242,-0.67,-0.63,-0.49,-25.76,22.64,9.83
1777398952073,1589252,-0.68,-0.57,-0.49,-15.08,22.09,7.32
1777398952073,1589262,-0.69,-0.56,-0.49,-9.52,22.89,4.76
1777398952073,1589272,-0.69,-0.54,-0.46,-7.02,22.95,1.83
1777398952073,1589282,-0.66,-0.54,-0.46,-5.49,20.75,0.98
1777398952073,1589292,-0.64,-0.55,-0.47,-5.80,17.82,2.44
1777398952073,1589302,-0.67,-0.54,-0.46,-6.47,14.89,6.59
1777398952073,1589312,-0.69,-0.58,-0.45,-3.72,6.84,11.54
1777398952073,1589322,-0.69,-0.57,-0.47,4.39,-6.84,12.70
1777398952081,1589332,-0.68,-0.55,-0.45,12.15,-21.73,9.03
1777398952081,1589342,-0.59,-0.47,-0.46,15.63,-35.52,5.86
1777398952081,1589352,-0.67,-0.51,-0.40,10.07,-44.43,7.02
1777398952081,1589362,-0.65,-0.54,-0.42,3.11,-53.16,11.17
1777398952082,1589372,-0.64,-0.53,-0.42,0.37,-62.87,14.89
1777398952082,1589382,-0.67,-0.51,-0.41,-0.67,-74.46,16.85
1777398952082,1589392,-0.71,-0.50,-0.40,-1.53,-85.21,18.68
1777398952082,1589402,-0.74,-0.50,-0.41,-1.10,-95.58,19.78
1777398952082,1589412,-0.78,-0.51,-0.41,0.49,-106.08,19.84
1777398952082,1589422,-0.83,-0.51,-0.37,2.93,-115.72,18.13
1777398952082,1589432,-0.84,-0.51,-0.35,6.71,-128.54,16.11
1777398952082,1589442,-0.84,-0.51,-0.33,10.56,-143.37,16.54
1777398952082,1589452,-0.86,-0.52,-0.30,12.82,-159.48,17.64
1777398952082,1589462,-0.85,-0.52,-0.30,12.51,-175.17,18.62
1777398952083,1589472,-0.70,-0.39,-0.33,6.84,-181.82,22.71
1777398952083,1589482,-0.78,-0.42,-0.22,-12.15,-170.53,38.45
1777398952083,1589502,-0.66,-0.45,-0.43,2.38,-131.47,78.98
1777398952083,1589522,-0.69,-0.45,-0.53,49.38,-46.26,85.45
1777398952083,1589542,-0.79,-0.38,-0.57,93.02,89.60,54.20
1777398952083,1589562,-0.87,-0.31,-0.46,108.52,248.29,13.31
1777398952083,1589572,-0.90,-0.30,-0.51,100.83,310.61,-4.21
1777398952083,1589582,-0.93,-0.31,-0.53,90.03,367.13,-17.15
1777398952089,1589592,-0.95,-0.34,-0.53,81.48,413.94,-26.18
1777398952089,1589602,-0.99,-0.37,-0.50,75.01,446.04,-34.36
1777398952089,1589612,-1.04,-0.40,-0.38,70.92,461.79,-42.97
1777398952089,1589622,-1.06,-0.40,-0.20,66.04,454.35,-51.09
1777398952089,1589632,-0.98,-0.40,-0.04,52.37,415.71,-57.19
1777398952089,1589642,-0.92,-0.42,0.04,27.77,351.56,-59.39
1777398952089,1589652,-0.86,-0.45,0.16,-7.51,266.91,-58.72
1777398952089,1589662,-0.75,-0.43,0.10,-46.02,160.52,-53.71
1777398952089,1589672,-0.68,-0.42,-0.08,-80.99,42.24,-40.89
1777398952091,1589682,-0.66,-0.46,-0.30,-103.27,-72.20,-22.77
1777398952091,1589692,-0.69,-0.53,-0.50,-106.26,-174.07,-6.10
1777398952091,1589702,-0.80,-0.53,-0.60,-94.42,-259.40,3.97
1777398952091,1589712,-0.86,-0.42,-0.67,-79.77,-331.18,9.03
1777398952091,1589722,-0.97,-0.36,-0.71,-74.95,-390.32,12.82
1777398952092,1589732,-1.04,-0.35,-0.77,-78.92,-436.71,14.22
1777398952092,1589742,-1.04,-0.33,-0.86,-85.57,-467.59,12.82
1777398952092,1589752,-0.98,-0.30,-0.91,-90.64,-475.52,11.54
1777398952092,1589762,-0.91,-0.28,-0.89,-93.51,-458.13,14.53
1777398952092,1589772,-0.81,-0.28,-0.84,-94.54,-421.33,22.22
1777398952092,1589782,-0.73,-0.28,-0.85,-92.59,-369.57,31.86
1777398952092,1589792,-0.43,-0.24,-1.42,-81.36,-301.57,36.93
1777398952092,1589802,-0.70,-0.33,-0.78,-57.13,-182.56,34.55
1777398952100,1589812,-0.63,-0.27,-1.01,-4.15,-54.08,28.50
1777398952101,1589822,-0.78,-0.33,-1.00,59.57,84.35,24.60
1777398952102,1589832,-0.97,-0.36,-0.74,117.19,230.35,-4.03
1777398952103,1589852,-1.23,-0.19,-0.34,144.04,457.95,-37.17
1777398952103,1589872,-1.29,-0.32,0.25,71.53,430.11,-56.34
1777398952104,1589892,-1.24,-0.21,0.82,-28.14,195.25,-64.45
1777398952104,1589912,-0.97,-0.32,0.08,-163.94,-168.33,-46.20
1777398952104,1589922,-0.91,-0.36,-0.42,-194.34,-313.23,-36.99
1777398952104,1589932,-0.76,-0.27,-0.89,-187.32,-403.38,-30.21
1777398952107,1589942,-0.60,-0.12,-1.29,-161.19,-433.29,-21.67
1777398952108,1589952,-0.45,-0.22,-1.55,-118.77,-404.54,-7.57
1777398952108,1589962,-0.43,-0.37,-1.60,-54.14,-318.97,2.81
1777398952108,1589972,-0.39,-0.40,-1.49,21.97,-193.48,5.37
1777398952109,1589982,-0.39,-0.33,-1.34,90.45,-49.68,4.39
1777398952109,1589992,-0.57,-0.24,-1.15,138.43,101.81,1.22
1777398952109,1590002,-0.85,-0.17,-0.85,164.37,243.35,-7.14
1777398952110,1590012,-1.12,-0.14,-0.56,169.37,349.18,-27.40
1777398952110,1590022,-1.34,-0.18,-0.26,161.56,411.13,-60.91
1777398952110,1590032,-1.48,-0.19,0.12,146.42,425.29,-105.22
1777398952111,1590042,-1.53,-0.17,0.49,118.29,384.77,-147.22
1777398952111,1590052,-1.35,-0.23,0.86,69.03,297.00,-169.31
1777398952112,1590062,-1.13,-0.29,0.87,-0.67,162.84,-167.60
1777398952113,1590072,-0.79,-0.45,0.50,-84.11,11.78,-146.18
1777398952116,1590082,-0.65,-0.48,0.15,-162.23,-106.45,-123.05
1777398952117,1590092,-0.66,-0.35,-0.18,-211.55,-195.68,-100.65
1777398952117,1590102,-0.60,-0.30,-0.58,-229.19,-260.56,-71.11
1777398952117,1590112,-0.49,-0.32,-0.95,-217.53,-291.69,-39.79
1777398952117,1590122,-0.42,-0.28,-1.20,-184.81,-280.82,-12.57
1777398952117,1590132,-0.31,-0.18,-1.48,-139.40,-228.88,10.74
1777398952117,1590142,-0.30,-0.22,-1.72,-88.68,-135.50,29.66
1777398952117,1590152,-0.28,-0.29,-1.71,-29.54,-5.31,41.26
1777398952117,1590162,-0.41,-0.38,-1.58,29.24,128.78,44.74
1777398952118,1590172,-0.56,-0.39,-1.26,72.33,236.82,39.00
1777398952118,1590192,-0.83,-0.29,-0.56,66.65,280.88,12.45
1777398952118,1590212,-1.07,-0.47,0.40,-61.40,-31.92,-15.93
1777398952118,1590232,-1.59,-0.37,-0.43,-176.03,-481.99,-46.94
1777398952118,1590252,-1.43,0.04,-1.29,-189.21,-748.05,-69.82
1777398952118,1590262,-1.44,0.11,-1.50,-173.77,-766.42,-59.81
1777398952119,1590272,-1.27,-0.03,-1.81,-143.98,-718.51,-65.12
1777398952119,1590282,-0.78,-0.28,-2.08,-90.76,-592.10,-103.27
1777398952120,1590292,-0.34,-0.42,-1.88,13.31,-383.48,-141.24
1777398952120,1590302,-0.15,-0.30,-1.73,163.51,-143.25,-137.76
1777398952121,1590312,-0.23,-0.10,-1.32,310.30,88.20,-86.79
1777398952121,1590322,-0.68,0.14,-0.72,422.36,291.93,-20.94
1777398952122,1590332,-1.12,0.31,-0.23,468.14,442.44,26.37
1777398952123,1590342,-1.43,0.19,0.16,435.49,525.02,37.66
1777398952124,1590352,-1.60,-0.03,0.35,355.04,552.98,16.42
1777398952124,1590362,-1.61,-0.21,0.46,266.48,547.67,-24.54
1777398952124,1590372,-1.62,-0.25,0.71,182.19,519.78,-66.53
1777398952124,1590382,-1.65,-0.27,1.24,96.74,453.49,-92.29
1777398952124,1590392,-1.49,-0.18,1.53,-5.49,313.84,-99.30
1777398952124,1590402,-1.26,-0.19,1.20,-129.39,108.28,-92.10
1777398952124,1590412,-1.19,-0.28,0.86,-239.69,-102.97,-78.67
1777398952124,1590422,-1.09,-0.09,0.06,-302.61,-285.64,-64.76
1777398952134,1590432,-0.81,-0.10,-0.85,-321.78,-412.29,-37.66
1777398952143,1590442,-0.47,-0.43,-1.74,-283.87,-451.48,-12.63
1777398952154,1590452,-0.10,-0.86,-2.58,-164.86,-377.56,-2.93
1777398952162,1590462,0.09,-0.99,-2.61,34.12,-168.95,-3.85
1777398952173,1590472,-0.25,-0.47,-1.96,252.38,104.25,-10.99
1777398952187,1590482,-0.88,-0.07,-0.96,374.27,333.07,-14.40
1777398952192,1590492,-1.18,-0.04,-0.26,378.54,450.99,-17.76
1777398952202,1590502,-1.29,-0.15,0.16,304.14,476.68,-37.54
1777398952212,1590512,-1.23,-0.25,0.47,196.35,446.84,-67.50
1777398952222,1590522,-1.14,-0.35,0.77,81.85,381.04,-94.36
1777398952242,1590542,-1.02,-0.49,1.15,-263.24,-111.45,-80.02
1777398952262,1590562,-1.21,-0.01,-0.72,-411.56,-533.81,-32.41
1777398952282,1590582,-0.82,-0.32,-2.57,-287.84,-633.24,19.96
1777398952302,1590602,-0.16,-0.60,-2.87,174.50,-214.90,-14.10
1777398952312,1590612,-0.38,-0.42,-2.42,362.67,79.83,-10.13
1777398952322,1590622,-1.07,-0.05,-0.77,403.63,330.20,-7.26
1777398952332,1590632,-1.36,0.11,-0.31,389.28,445.68,-8.24
1777398952342,1590642,-1.43,-0.06,0.06,314.64,481.57,-24.41
1777398952352,1590652,-1.47,-0.26,0.52,211.12,471.07,-56.46
1777398952362,1590662,-1.41,-0.30,1.17,101.44,400.39,-84.47
1777398952372,1590672,-1.29,-0.12,1.49,-21.36,246.34,-93.63
1777398952382,1590682,-1.24,-0.17,1.36,-163.21,23.07,-79.90
1777398952393,1590692,-1.25,-0.21,0.74,-298.34,-225.34,-58.90
1777398952402,1590702,-1.26,-0.12,-0.24,-395.39,-447.88,-35.89
1777398952413,1590712,-1.16,-0.10,-1.30,-417.42,-593.08,-2.81
1777398952422,1590722,-0.96,-0.44,-2.16,-342.22,-627.26,21.85
1777398952437,1590732,-0.47,-0.80,-2.85,-177.25,-532.41,6.47
1777398952442,1590742,-0.13,-0.73,-2.61,36.99,-308.72,-25.45
1777398952452,1590752,-0.24,-0.20,-1.95,235.41,-47.00,-38.02
1777398952466,1590762,-0.62,-0.01,-1.18,341.19,169.80,-19.35
1777398952472,1590772,-1.00,0.05,-0.57,351.20,325.99,-1.04
1777398952482,1590782,-1.22,0.04,-0.17,294.80,410.46,-5.13
1777398952493,1590792,-1.21,-0.15,0.08,207.09,438.29,-22.52
1777398952502,1590802,-1.18,-0.29,0.32,118.90,424.99,-45.35
1777398952512,1590812,-1.20,-0.29,0.79,36.74,369.45,-60.30
1777398952522,1590822,-1.25,-0.25,1.24,-54.81,242.61,-61.52
1777398952532,1590832,-1.30,-0.24,1.22,-164.86,33.94,-53.96
1777398952542,1590842,-1.43,-0.20,0.73,-274.60,-215.15,-42.85
1777398952552,1590852,-1.45,-0.01,-0.24,-353.27,-444.76,-29.36
1777398952562,1590862,-1.38,-0.20,-1.28,-362.98,-598.57,-28.63
1777398952582,1590882,-0.44,-0.78,-2.78,82.76,-287.11,-82.82
1777398952602,1590902,-0.06,0.00,-1.21,370.36,180.97,-12.08
1777398952622,1590922,-1.25,0.12,-0.17,332.64,464.54,23.32
1777398952642,1590942,-1.48,-0.30,0.70,139.71,496.95,-36.25
1777398952652,1590952,-1.47,-0.14,1.36,34.12,407.71,-63.72
1777398952662,1590962,-1.50,-0.12,1.68,-87.52,222.96,-67.20
1777398952672,1590972,-1.65,-0.10,1.65,-227.36,-39.86,-57.62
1777398952682,1590982,-1.82,0.09,0.82,-365.72,-346.74,-50.42
1777398952692,1590992,-1.86,0.08,-0.43,-456.42,-613.10,-39.67
1777398952702,1591002,-1.61,0.10,-1.43,-461.24,-757.87,-26.31
1777398952712,1591012,-1.36,-0.06,-2.11,-383.97,-767.76,-15.50
1777398952722,1591022,-0.72,-0.42,-2.70,-255.55,-655.82,-31.25
1777398952732,1591032,-0.18,-0.72,-2.76,-88.62,-422.73,-71.47
1777398952742,1591042,-0.08,-0.45,-2.15,118.96,-128.85,-85.08
1777398952752,1591052,-0.29,-0.15,-1.72,297.36,123.41,-47.97
1777398952762,1591062,-0.71,0.13,-1.00,384.95,326.23,7.69
1777398952772,1591072,-1.07,0.33,-0.61,389.77,465.52,43.15
1777398952782,1591082,-1.35,0.19,-0.23,323.00,552.49,49.62
1777398952792,1591092,-1.49,-0.06,0.01,235.72,591.31,28.63
1777398952802,1591102,-1.57,-0.17,0.21,157.78,587.46,-6.29
1777398952812,1591112,-1.79,-0.26,0.79,85.75,539.92,-39.25
1777398952822,1591122,-1.93,-0.24,1.62,-2.56,408.14,-66.77
1777398952832,1591132,-1.97,-0.14,1.83,-120.97,158.02,-90.39
1777398952842,1591142,-1.99,0.12,1.09,-253.48,-162.17,-110.90
1777398952852,1591152,-1.94,0.13,-0.18,-352.54,-461.36,-114.20
1777398952862,1591162,-1.71,-0.34,-1.53,-364.07,-663.88,-113.22
1777398952872,1591172,-1.16,-0.61,-2.31,-268.98,-717.29,-124.08
1777398952882,1591182,-0.45,-0.43,-2.60,-112.85,-631.77,-133.61
1777398952892,1591192,0.12,-0.37,-2.60,37.72,-442.75,-120.36
1777398952902,1591202,0.26,-0.32,-2.21,170.96,-188.42,-86.43
1777398952912,1591212,0.00,-0.13,-1.67,287.90,79.47,6.71
1777398952932,1591232,-1.08,0.16,-0.58,289.43,593.26,23.19
1777398952952,1591252,-1.59,-0.35,0.80,118.04,573.85,-46.08
1777398952972,1591272,-1.66,0.02,1.99,-113.65,221.86,-75.87
1777398952992,1591292,-1.74,0.16,0.13,-401.06,-409.06,-38.82
1777398953002,1591302,-1.74,-0.34,-1.19,-439.33,-651.00,-6.71
1777398953012,1591312,-1.41,-0.41,-1.87,-363.95,-758.73,9.70
1777398953022,1591322,-1.11,-0.24,-2.16,-228.58,-747.68,18.19
1777398953032,1591332,-0.60,-0.43,-2.64,-94.24,-633.48,7.20
1777398953042,1591342,-0.25,-0.54,-2.36,27.53,-407.53,-35.95
1777398953052,1591352,-0.20,-0.33,-1.72,158.33,-148.62,-69.64
1777398953062,1591362,-0.30,-0.18,-1.41,280.58,74.52,-61.40
1777398953072,1591372,-0.58,0.08,-0.97,364.14,270.32,-32.41
1777398953082,1591382,-0.92,0.28,-0.53,379.94,427.00,-6.77
1777398953092,1591392,-1.17,0.13,-0.13,332.03,529.60,7.45
1777398953102,1591402,-1.28,-0.07,0.15,253.91,578.80,3.91
1777398953112,1591412,-1.46,-0.16,0.52,170.90,580.93,-10.99
1777398953122,1591422,-1.70,-0.13,1.34,78.92,520.39,-23.50
1777398953132,1591432,-1.73,-0.01,1.86,-39.00,348.82,-29.05
1777398953142,1591442,-1.80,0.14,1.69,-182.25,71.17,-26.98
1777398953152,1591452,-1.92,0.12,0.67,-309.27,-256.04,-17.03
1777398953162,1591462,-2.01,-0.44,-0.78,-359.68,-549.38,-9.09
1777398953172,1591472,-1.80,-0.75,-1.78,-300.23,-719.06,-34.48
1777398953182,1591482,-1.27,-0.49,-2.20,-163.33,-742.49,-76.66
1777398953192,1591492,-0.61,-0.23,-2.28,-36.32,-651.55,-97.78
1777398953202,1591502,-0.19,-0.32,-2.05,60.24,-478.45,-90.58
1777398953212,1591512,-0.07,-0.31,-1.62,153.69,-253.66,-70.37
1777398953222,1591522,-0.19,-0.16,-1.33,240.97,-15.56,-44.25
1777398953232,1591532,-0.57,-0.04,-0.87,289.43,211.24,-21.55
1777398953242,1591542,-0.98,-0.00,-0.41,287.84,396.85,-12.33
1777398953252,1591552,-1.25,-0.06,-0.06,250.55,512.63,-33.87
1777398953272,1591572,-1.50,-0.17,0.39,97.29,530.09,-67.99
1777398953292,1591592,-1.64,0.04,1.33,-104.13,208.25,-70.31
1777398953312,1591612,-1.63,-0.43,-0.16,-264.28,-293.40,-25.33
1777398953332,1591632,-1.30,-0.60,-1.43,-149.29,-591.55,-28.38
1777398953342,1591642,-0.93,-0.36,-1.59,-65.06,-594.18,-45.96
1777398953352,1591652,-0.48,-0.35,-1.70,-6.71,-512.27,-52.19
1777398953362,1591662,-0.11,-0.41,-1.69,49.62,-343.87,-46.69
1777398953372,1591672,0.01,-0.31,-1.52,114.87,-99.85,-33.02
1777398953382,1591682,-0.31,-0.11,-1.27,166.69,177.43,-19.04
1777398953392,1591692,-0.88,-0.00,-0.79,178.89,423.40,-16.24
1777398953402,1591702,-1.35,-0.12,-0.43,161.01,579.83,-31.19
1777398953412,1591712,-1.54,-0.25,-0.23,141.72,648.44,-59.27
1777398953422,1591722,-1.55,-0.28,-0.14,126.65,660.64,-91.49
1777398953432,1591732,-1.71,-0.37,0.28,97.66,635.07,-114.69
1777398953442,1591742,-1.82,-0.42,1.19,23.32,542.24,-132.93
1777398953452,1591752,-1.79,-0.20,1.98,-114.69,319.64,-146.91
1777398953462,1591762,-1.79,0.19,1.47,-282.78,-33.26,-146.91
1777398953472,1591772,-1.99,0.29,0.13,-415.59,-411.44,-126.16
1777398953482,1591782,-2.07,0.04,-1.29,-467.41,-694.21,-108.89
1777398953493,1591792,-1.84,-0.21,-2.06,-425.48,-816.35,-117.13
1777398953502,1591802,-1.37,-0.26,-2.33,-312.32,-795.47,-140.38
1777398953512,1591812,-0.82,-0.22,-2.21,-182.74,-683.29,-152.04
1777398953522,1591822,-0.26,-0.36,-2.18,-67.69,-526.06,-150.82
1777398953532,1591832,0.15,-0.50,-2.02,49.99,-330.02,-142.64
1777398953542,1591842,0.33,-0.36,-1.76,189.27,-105.22,-114.32
1777398953552,1591852,0.24,-0.25,-1.96,328.12,124.45,-60.91
1777398953562,1591862,-0.33,0.01,-1.08,404.36,357.12,-8.00
1777398953572,1591872,-0.85,0.23,-0.52,423.65,528.14,28.63
1777398953582,1591882,-1.16,0.13,-0.09,383.06,618.35,47.18
1777398953592,1591892,-1.33,-0.05,0.16,303.10,647.52,40.71
1777398953602,1591902,-1.50,-0.18,0.51,204.65,552.12,-15.81
1777398953622,1591922,-1.73,-0.06,1.87,-211.24,86.18,-42.05
1777398953642,1591942,-2.01,-0.46,-0.74,-393.31,-548.65,-8.18
1777398953662,1591962,-1.28,-0.53,-2.09,-211.30,-752.56,-55.54
1777398953682,1591982,-0.09,-0.50,-2.30,43.70,-466.13,-106.99
1777398953692,1591992,0.07,-0.48,-1.83,160.40,-209.29,-119.02
1777398953702,1592002,-0.05,-0.27,-1.39,282.29,43.15,-98.88
1777398953712,1592012,-0.44,-0.00,-0.89,370.06,266.60,-59.57
1777398953722,1592022,-0.89,0.21,-0.48,392.52,444.03,-28.50
1777398953732,1592032,-1.25,0.07,-0.06,349.49,564.64,-14.47
1777398953742,1592042,-1.47,-0.19,0.28,268.92,626.89,-27.28
1777398953752,1592052,-1.43,-0.32,0.45,174.50,633.85,-63.42
1777398953762,1592062,-1.35,-0.28,0.61,74.10,603.33,-102.78
1777398953772,1592072,-1.39,-0.28,0.98,-30.03,538.27,-128.72
1777398953782,1592082,-1.33,-0.11,1.33,-155.52,401.31,-136.72
1777398953792,1592092,-1.26,0.06,1.14,-301.64,165.16,-122.31
1777398953802,1592102,-1.56,-0.01,0.18,-417.30,-138.24,-84.35
1777398953813,1592112,-1.83,-0.70,-1.15,-434.51,-430.60,-42.91
1777398953822,1592122,-1.70,-1.05,-2.24,-324.65,-614.75,-54.50
1777398953832,1592132,-1.26,-0.75,-2.55,-146.12,-640.87,-116.09
1777398953842,1592142,-0.74,-0.23,-2.24,2.01,-559.51,-166.69
1777398953852,1592152,-0.32,-0.10,-2.05,88.75,-440.49,-167.60
1777398953862,1592162,-0.02,-0.29,-1.73,144.47,-283.87,-130.98
1777398953872,1592172,0.06,-0.30,-1.41,192.02,-93.81,-84.53
1777398953882,1592182,-0.01,-0.17,-1.05,221.86,114.93,-37.35
1777398953892,1592192,-0.32,0.01,-0.65,209.23,317.32,0.79
1777398953902,1592202,-0.66,0.02,-0.26,146.42,471.01,19.23
1777398953912,1592212,-0.83,-0.19,-0.06,70.43,550.11,24.90
1777398953922,1592222,-0.87,-0.40,-0.15,14.53,569.03,21.00
1777398953932,1592232,-1.08,-0.47,0.22,-33.39,546.63,14.95
1777398953942,1592242,-1.31,-0.41,0.88,-99.43,434.14,31.98
1777398953962,1592262,-2.13,-0.48,0.46,-254.58,-511.41,7.39
1777398953982,1592282,-2.05,-0.04,-1.59,-174.01,-772.03,-131.90
1777398954002,1592302,-0.94,0.04,-1.47,-118.90,-712.40,-125.49
1777398954022,1592322,0.03,-0.37,-1.42,-48.46,-500.00,-60.12
1777398954032,1592332,0.46,-0.72,-1.54,29.42,-313.29,-32.41
1777398954042,1592342,0.50,-0.76,-1.28,150.51,-63.84,-16.60
1777398954052,1592352,0.20,-0.59,-1.40,284.55,201.05,-2.32
1777398954062,1592362,-0.42,-0.25,-0.76,357.30,433.47,10.07
1777398954072,1592372,-0.88,0.02,-0.47,377.38,589.17,18.19
1777398954082,1592382,-1.22,0.05,-0.31,357.12,680.05,20.14
1777398954092,1592392,-1.49,0.00,-0.08,306.09,730.65,10.68
1777398954102,1592402,-1.62,-0.05,0.22,235.84,735.66,-2.44
1777398954112,1592412,-1.84,-0.10,0.75,151.98,684.69,-9.77
1777398954122,1592422,-1.91,-0.14,1.45,42.54,547.00,-11.23
1777398954132,1592432,-1.88,-0.13,1.72,-94.06,295.17,-11.35
1777398954142,1592442,-1.92,-0.16,1.12,-218.38,-36.93,-10.99
1777398954152,1592452,-1.94,-0.38,0.05,-295.96,-365.66,-12.08
1777398954162,1592462,-1.75,-0.52,-1.05,-300.84,-608.76,-30.64
1777398954172,1592472,-1.37,-0.32,-1.67,-250.24,-718.02,-56.21
1777398954182,1592482,-0.90,-0.11,-2.08,-182.25,-705.02,-68.24
1777398954192,1592492,-0.36,-0.30,-2.44,-106.81,-585.88,-76.42
1777398954202,1592502,0.09,-0.64,-2.24,-6.59,-365.84,-88.87
1777398954212,1592512,0.13,-0.52,-1.80,121.15,-103.15,-94.85
1777398954222,1592522,-0.14,-0.29,-1.36,235.78,145.69,-76.48
1777398954232,1592532,-0.60,-0.09,-0.83,296.33,354.06,-46.51
1777398954242,1592542,-1.00,0.02,-0.36,287.05,498.05,-27.71
1777398954252,1592552,-1.20,-0.16,0.02,224.00,570.80,-24.29
1777398954262,1592562,-1.17,-0.30,0.19,143.25,582.82,-37.54
1777398954272,1592572,-1.06,-0.27,0.21,68.36,557.31,-55.91
1777398954282,1592582,-1.19,-0.30,0.47,-2.20,510.62,-69.70
1777398954292,1592592,-1.22,-0.23,0.84,-89.90,226.81,-80.99
1777398954312,1592612,-1.39,-0.26,0.12,-285.16,-302.37,-27.77
1777398954332,1592632,-1.07,-0.51,-1.93,-46.02,-545.65,-69.09
1777398954352,1592652,-0.28,-0.25,-1.86,91.61,-440.43,-81.30
1777398954372,1592672,0.02,-0.44,-1.71,210.02,-86.18,-39.61
1777398954382,1592682,-0.31,-0.27,-1.17,271.36,155.52,-28.63
1777398954392,1592692,-0.78,-0.16,-0.67,289.43,361.76,-32.29
1777398954402,1592702,-1.17,-0.30,-0.21,265.38,502.69,-57.56
1777398954412,1592712,-1.32,-0.43,0.32,210.75,572.75,-101.93
1777398954422,1592722,-1.15,-0.37,0.63,135.07,570.19,-148.56
1777398954432,1592732,-0.88,-0.30,0.75,40.95,520.94,-179.14
1777398954442,1592742,-0.71,-0.16,0.99,-74.28,441.53,-181.76
1777398954452,1592752,-0.47,-0.02,0.85,-209.17,297.12,-144.71
1777398954462,1592762,-0.67,-0.32,0.22,-329.16,68.48,-65.55
1777398954472,1592772,-1.19,-1.13,-0.75,-340.03,-218.26,33.63
1777398954482,1592782,-1.47,-1.20,-1.43,-220.28,-481.26,88.62
1777398954492,1592792,-1.46,-0.54,-1.45,-86.00,-656.19,80.20
1777398954502,1592802,-1.45,-0.04,-1.33,-47.36,-758.91,60.30
1777398954512,1592812,-1.44,-0.01,-1.29,-85.88,-817.50,60.85
1777398954522,1592822,-1.31,-0.00,-1.24,-134.03,-830.57,75.99
1777398954532,1592832,-1.06,0.05,-1.23,-159.30,-797.12,92.96
1777398954542,1592842,-0.57,-0.13,-1.66,-155.76,-701.72,92.59
1777398954552,1592852,-0.11,-0.82,-2.05,-97.60,-497.74,50.66
1777398954562,1592862,0.06,-1.00,-1.72,33.33,-189.39,-28.20
1777398954572,1592872,0.00,-0.72,-1.78,217.41,138.00,-91.92
1777398954582,1592882,-0.65,-0.11,-1.01,344.60,438.60,-118.65
1777398954592,1592892,-1.26,0.22,-0.46,389.89,648.32,-118.41
1777398954602,1592902,-1.65,0.13,-0.15,365.84,765.14,-115.30
1777398954612,1592912,-1.88,-0.08,0.15,296.20,819.52,-132.63
1777398954622,1592922,-1.77,-0.19,0.35,206.85,819.09,-165.04
1777398954632,1592932,-1.42,-0.17,0.37,109.07,773.68,-189.64
1777398954652,1592952,-1.03,-0.33,0.90,-197.33,355.04,-93.14
1777398954672,1592972,-1.47,-0.87,-0.10,-257.63,-358.70,35.89
1777398954692,1592992,-1.65,-0.15,-1.32,-173.65,-850.95,46.57
1777398954712,1593012,-1.41,0.27,-1.56,-196.96,-933.23,47.97
1777398954722,1593022,-1.13,0.11,-1.62,-223.94,-867.07,34.36
1777398954732,1593032,-0.46,-0.25,-1.87,-228.45,-733.83,-6.47
1777398954742,1593042,0.15,-0.79,-2.17,-167.18,-520.39,-53.10
1777398954752,1593052,0.44,-0.94,-2.13,-24.90,-227.29,-86.30
1777398954762,1593062,0.34,-0.55,-1.86,156.92,92.22,-89.11
1777398954772,1593072,-0.32,-0.15,-1.20,294.56,380.74,-59.51
1777398954782,1593082,-0.93,0.12,-0.66,339.36,584.47,-28.32
1777398954792,1593092,-1.38,0.07,-0.29,301.27,697.02,-20.32
1777398954802,1593102,-1.57,-0.10,-0.05,224.61,739.99,-40.04
1777398954812,1593112,-1.46,-0.16,-0.03,146.85,733.34,-72.75
1777398954822,1593122,-1.29,-0.13,-0.11,81.60,700.93,-95.52
1777398954832,1593132,-1.33,-0.28,0.14,22.71,652.59,-96.62
1777398954842,1593142,-1.43,-0.43,0.82,-49.32,545.59,-82.70
1777398954852,1593152,-1.73,-0.36,1.47,-147.22,311.65,-64.39
1777398954862,1593162,-1.98,-0.31,0.91,-243.84,-59.45,-41.02
1777398954872,1593172,-2.21,-0.55,-0.36,-294.13,-457.46,-21.85
1777398954882,1593182,-2.10,-0.39,-1.49,-274.90,-741.27,-37.60
1777398954892,1593192,-1.78,-0.07,-1.94,-224.00,-869.26,-64.82
1777398954902,1593202,-1.40,0.13,-2.11,-182.56,-880.80,-65.06
1777398954912,1593212,-1.02,0.06,-2.12,-154.48,-808.78,-48.71
1777398954922,1593222,-0.49,-0.30,-2.25,-118.23,-664.67,-59.33
1777398954932,1593232,0.01,-0.59,-2.21,-42.05,-439.88,-95.76
1777398954942,1593242,0.24,-0.49,-1.98,81.05,-157.17,-114.93
1777398954952,1593252,0.02,-0.33,-1.58,214.23,132.63,-94.67
1777398954962,1593262,-0.54,-0.10,-0.94,304.26,382.69,-59.02
1777398954972,1593272,-1.00,0.05,-0.41,316.16,550.17,-32.04
1777398954982,1593282,-1.28,-0.06,-0.02,264.59,648.62,-40.47
1777398955002,1593302,-1.26,-0.16,0.37,19.10,573.67,-71.59
1777398955022,1593322,-1.58,-0.13,1.54,-203.86,236.94,-68.48
1777398955043,1593342,-1.85,-0.53,-0.66,-369.32,-419.37,-22.58
1777398955062,1593362,-1.17,-0.37,-2.09,-186.71,-707.09,-47.06
1777398955073,1593372,-0.56,-0.21,-2.59,-55.85,-663.94,-49.19
1777398955082,1593382,-0.03,-0.39,-2.73,67.63,-498.29,-41.20
1777398955093,1593392,0.18,-0.32,-2.42,191.53,-234.99,-44.13
1777398955102,1593402,-0.11,-0.16,-1.74,309.88,49.99,-30.15
1777398955112,1593412,-0.60,0.00,-1.01,391.60,284.79,-2.32
1777398955122,1593422,-1.02,0.14,-0.41,397.16,440.67,8.42
1777398955132,1593432,-1.25,0.04,0.10,333.19,520.08,-2.32
1777398955142,1593442,-1.24,-0.16,0.34,239.62,536.87,-29.42
1777398955152,1593452,-1.06,-0.24,0.30,146.67,518.31,-64.82
1777398955162,1593462,-0.84,-0.28,0.19,63.90,490.05,-95.03
1777398955172,1593472,-0.70,-0.37,0.14,-6.23,459.96,-109.31
1777398955182,1593482,-0.79,-0.44,0.34,-73.36,413.33,-110.17
1777398955192,1593492,-0.88,-0.36,0.55,-151.12,313.23,-101.20
1777398955202,1593502,-1.17,-0.27,0.66,-231.45,137.51,-79.96
1777398955212,1593512,-1.45,-0.18,0.18,-296.75,-112.18,-49.13
1777398955222,1593522,-1.77,-0.40,-0.59,-316.77,-387.21,-15.63
1777398955232,1593532,-1.75,-0.49,-1.44,-268.07,-609.74,-9.16
1777398955242,1593542,-1.51,-0.20,-1.73,-196.59,-721.92,-30.03
1777398955252,1593552,-1.26,0.05,-1.85,-145.75,-743.47,-42.30
1777398955262,1593562,-0.99,0.04,-1.95,-120.67,-700.87,-42.05
1777398955272,1593572,-0.60,-0.17,-2.09,-90.88,-594.48,-53.22
1777398955282,1593582,-0.24,-0.42,-2.09,-26.37,-417.30,-75.74
1777398955292,1593592,0.02,-0.37,-1.91,71.04,-187.74,-86.43
1777398955302,1593602,0.00,-0.28,-1.63,174.56,52.67,-68.12
1777398955312,1593612,-0.35,-0.18,-1.10,254.15,271.91,-32.23
1777398955322,1593622,-0.74,-0.06,-0.59,278.75,433.29,13.43
1777398955342,1593642,-1.11,-0.18,-0.06,123.23,548.58,-21.61
1777398955362,1593662,-0.95,-0.39,0.29,16.60,478.21,-30.76
1777398955382,1593682,-1.45,-0.36,0.86,-124.69,177.49,-22.46
1777398955402,1593702,-1.75,-0.40,-0.36,-230.59,-364.87,-18.86
1777398955413,1593712,-1.66,-0.45,-1.19,-213.20,-572.69,-36.50
1777398955422,1593722,-1.40,-0.34,-1.65,-156.74,-670.59,-66.47
1777398955432,1593732,-1.01,-0.18,-1.81,-95.21,-670.59,-84.11
1777398955442,1593742,-0.59,-0.15,-1.82,-47.42,-600.83,-80.75
1777398955452,1593752,-0.26,-0.26,-1.82,2.08,-475.65,-66.28
1777398955462,1593762,0.00,-0.35,-1.75,67.38,-297.06,-52.73
1777398955472,1593772,0.05,-0.28,-1.58,144.59,-79.04,-36.38
1777398955482,1593782,-0.16,-0.20,-1.28,212.77,151.67,-13.37
1777398955492,1593792,-0.63,-0.17,-0.75,248.29,360.11,8.48
1777398955502,1593802,-1.06,-0.14,-0.30,237.12,501.53,11.78
1777398955512,1593812,-1.25,-0.23,0.08,184.88,565.86,-6.77
1777398955522,1593822,-1.26,-0.26,0.26,112.43,566.22,-36.38
1777398955532,1593832,-1.29,-0.27,0.50,32.65,524.41,-63.11
1777398955542,1593842,-1.24,-0.19,0.71,-54.57,438.11,-80.51
1777398955552,1593852,-1.10,-0.12,0.68,-152.40,290.41,-82.52
1777398955562,1593862,-1.23,-0.22,0.33,-233.40,85.69,-62.50
1777398955572,1593872,-1.42,-0.61,-0.43,-259.34,-158.57,-26.86
1777398955582,1593882,-1.51,-0.85,-1.20,-208.13,-382.63,-11.35
1777398955592,1593892,-1.42,-0.60,-1.59,-105.47,-523.13,-36.44
1777398955602,1593902,-1.18,-0.25,-1.66,-14.71,-579.28,-72.39
1777398955612,1593912,-0.94,-0.17,-1.61,36.44,-584.84,-87.95
1777398955622,1593922,-0.63,-0.22,-1.56,66.35,-549.87,-83.01
1777398955632,1593932,-0.28,-0.28,-1.51,98.21,-468.99,-65.55
1777398955642,1593942,0.03,-0.27,-1.41,140.14,-334.96,-39.55
1777398955652,1593952,0.17,-0.25,-1.23,188.23,-151.61,-9.83
1777398955662,1593962,-0.04,-0.31,-0.84,228.88,61.28,16.78
1777398955672,1593972,-0.46,-0.28,-0.36,238.77,400.27,14.10
1777398955692,1593992,-1.05,-0.32,0.22,72.51,499.57,-53.47
1777398955712,1594012,-0.88,-0.16,-0.10,-53.10,494.93,-91.19
1777398955732,1594032,-1.24,-0.44,0.21,-143.74,315.25,-27.53
1777398955752,1594052,-1.78,-0.66,-0.21,-140.44,-207.58,22.89
1777398955762,1594062,-1.86,-0.45,-0.76,-121.28,-481.32,2.44
1777398955772,1594072,-1.79,-0.28,-1.16,-109.07,-672.06,-37.48
1777398955782,1594082,-1.61,-0.13,-1.39,-107.12,-773.25,-68.36
1777398955792,1594092,-1.27,-0.09,-1.52,-106.14,-801.39,-74.22
1777398955802,1594102,-0.70,-0.13,-1.58,-91.25,-762.63,-56.21
1777398955812,1594112,-0.02,-0.27,-1.67,-47.06,-651.06,-19.84
1777398955822,1594122,0.48,-0.48,-1.49,29.91,-451.29,27.47
1777398955832,1594132,0.53,-0.57,-1.26,119.81,-188.60,63.17
1777398955842,1594142,0.07,-0.54,-1.07,197.45,101.14,71.29
1777398955852,1594152,-0.68,-0.41,-0.64,243.23,371.64,48.71
1777398955862,1594162,-1.29,-0.27,-0.31,253.85,563.96,6.53
1777398955872,1594172,-1.59,-0.18,-0.12,230.96,667.30,-49.74
1777398955882,1594182,-1.60,-0.15,-0.02,179.50,705.69,-108.70
1777398955893,1594192,-1.33,-0.08,-0.11,119.14,704.90,-153.69
1777398955902,1594202,-1.04,0.01,-0.28,63.48,686.89,-164.49
1777398955912,1594212,-1.08,-0.17,-0.11,22.46,652.28,-131.90
1777398955922,1594222,-1.19,-0.42,0.46,-16.05,554.14,-74.10
1777398955932,1594232,-1.40,-0.51,0.94,-66.41,333.92,-19.41
1777398955942,1594242,-1.56,-0.50,0.64,-115.72,2.14,21.61
1777398955952,1594252,-1.58,-0.48,-0.10,-152.77,-348.39,43.21
1777398955962,1594262,-1.58,-0.36,-0.82,-164.43,-614.81,39.61
1777398955972,1594272,-1.45,-0.18,-1.26,-163.09,-763.00,27.28
1777398955982,1594282,-1.24,-0.02,-1.50,-167.66,-813.72,21.79
1777398955992,1594292,-0.98,-0.00,-1.49,-172.91,-790.10,29.91
1777398956002,1594302,-0.64,-0.09,-1.47,-165.53,-712.95,42.05
1777398956012,1594312,-0.29,-0.37,-1.58,-135.38,-583.44,6.90
1777398956032,1594332,0.20,-0.69,-1.55,146.00,101.38,-27.40
1777398956052,1594352,-0.46,0.04,-0.57,272.95,521.00,-14.10
1777398956072,1594372,-1.42,0.03,-0.17,205.57,664.98,-16.24
1777398956093,1594392,-1.27,-0.18,-0.49,122.13,652.40,-38.09
1777398956102,1594402,-1.50,-0.30,-0.12,103.70,625.79,-38.02
1777398956112,1594412,-1.60,-0.30,0.52,67.26,534.48,-31.74
1777398956122,1594422,-1.67,-0.31,0.95,-4.64,331.42,-26.25
1777398956132,1594432,-1.76,-0.27,0.75,-88.01,39.49,-23.32
1777398956142,1594442,-1.83,-0.28,0.11,-153.99,-275.88,-22.77
1777398956152,1594452,-1.85,-0.24,-0.64,-188.23,-539.79,-28.93
1777398956162,1594462,-1.78,-0.12,-1.22,-197.08,-710.39,-43.46
1777398956172,1594472,-1.57,-0.04,-1.61,-194.95,-788.94,-56.58
1777398956182,1594482,-1.25,-0.05,-1.74,-183.53,-784.79,-56.15
1777398956192,1594492,-0.81,-0.11,-1.67,-159.30,-716.13,-43.33
1777398956202,1594502,-0.30,-0.28,-1.67,-117.68,-598.82,-24.48
1777398956212,1594512,0.08,-0.55,-1.63,-47.18,-422.42,-9.83
1777398956222,1594522,0.18,-0.63,-1.40,45.53,-192.38,-8.67
1777398956232,1594532,0.05,-0.47,-1.14,141.11,56.34,-11.84
1777398956242,1594542,-0.42,-0.26,-0.71,208.25,287.05,-10.93
1777398956252,1594552,-0.92,-0.08,-0.33,226.62,459.96,-12.39
1777398956262,1594562,-1.26,-0.04,-0.08,199.77,559.14,-24.11
1777398956272,1594572,-1.37,-0.07,0.01,146.24,597.47,-46.94
1777398956282,1594582,-1.25,-0.10,-0.14,88.62,597.53,-73.61
1777398956292,1594592,-1.18,-0.10,-0.28,42.24,581.42,-87.83
1777398956302,1594602,-1.32,-0.20,-0.03,9.83,544.86,-77.58
1777398956312,1594612,-1.45,-0.29,0.34,-26.73,439.70,-53.22
1777398956322,1594622,-1.64,-0.40,0.57,-72.27,237.85,-32.71
1777398956332,1594632,-1.82,-0.39,0.31,-114.93,-43.64,-26.98
1777398956342,1594642,-1.78,-0.37,-0.41,-146.67,-341.98,-36.74
1777398956352,1594652,-1.63,-0.32,-1.16,-149.90,-571.17,-57.01
1777398956362,1594662,-1.40,-0.26,-1.64,-126.95,-703.55,-81.48
1777398956382,1594682,-0.51,-0.24,-1.95,6.90,-490.91,-48.16
1777398956402,1594702,0.22,-0.38,-1.17,145.81,-56.70,-0.18
1777398956422,1594722,-0.55,-0.25,-0.29,199.40,352.17,15.08
1777398956442,1594742,-1.01,-0.20,0.16,128.30,517.46,-10.50
1777398956452,1594752,-1.00,-0.16,0.15,73.12,525.51,-28.26
1777398956462,1594762,-0.90,-0.11,0.05,13.55,510.50,-40.59
1777398956472,1594772,-1.01,-0.13,0.05,-41.32,478.70,-37.72
1777398956482,1594782,-1.24,-0.06,0.31,-95.03,403.20,-18.07
1777398956492,1594792,-1.39,-0.11,0.39,-155.58,232.97,13.12
1777398956502,1594802,-1.75,-0.27,0.05,-195.37,-27.40,43.70
1777398956512,1594812,-1.80,-0.42,-0.72,-194.95,-312.93,54.14
1777398956522,1594822,-1.67,-0.42,-1.42,-150.33,-534.67,31.49
1777398956532,1594832,-1.29,-0.31,-1.75,-78.31,-645.20,4.33
1777398956542,1594842,-0.76,-0.19,-2.00,-2.56,-654.79,-4.33
1777398956552,1594852,-0.21,-0.21,-2.07,76.42,-558.47,14.04
1777398956562,1594862,0.12,-0.33,-1.89,169.92,-358.15,53.47
1777398956572,1594872,0.06,-0.31,-1.46,254.52,-93.57,86.55
1777398956582,1594882,-0.44,-0.14,-0.80,298.52,173.65,98.21
1777398956592,1594892,-0.98,-0.10,-0.19,288.51,379.15,92.47
1777398956602,1594902,-1.36,-0.17,0.14,243.47,488.40,62.32
1777398956612,1594912,-1.46,-0.24,0.22,196.11,514.47,10.99
1777398956622,1594922,-1.36,-0.25,0.22,161.50,482.42,-43.58
1777398956632,1594932,-1.11,-0.15,0.10,134.09,416.93,-88.93
1777398956642,1594942,-1.03,-0.22,0.14,105.41,340.70,-113.22
1777398956652,1594952,-0.99,-0.24,0.35,65.12,248.11,-117.68
1777398956662,1594962,-0.96,-0.07,0.47,-5.80,117.43,-110.35
1777398956672,1594972,-1.08,0.02,0.40,-96.56,-48.83,-85.75
1777398956682,1594982,-1.17,0.04,0.02,-176.57,-228.76,-47.55
1777398956692,1594992,-1.22,-0.04,-0.52,-225.95,-387.88,-11.66
1777398956702,1595002,-1.16,-0.09,-0.95,-242.86,-489.20,26.37
1777398956722,1595022,-0.80,-0.22,-1.55,-134.22,-412.66,13.00
1777398956742,1595042,-0.34,-0.55,-1.77,93.93,-35.46,-31.31
1777398956762,1595062,-0.97,-0.15,-0.61,216.49,324.71,-64.09
1777398956782,1595082,-1.08,-0.14,0.05,155.27,388.98,-81.73
1777398956793,1595092,-1.04,-0.20,0.14,110.05,344.18,-87.52
1777398956802,1595102,-1.10,-0.26,0.45,62.38,273.19,-88.99
1777398956812,1595112,-1.20,-0.18,0.76,-9.03,161.68,-90.94
1777398956822,1595122,-1.31,0.05,0.87,-116.03,3.85,-95.34
1777398956832,1595132,-1.28,0.28,0.31,-234.68,-188.17,-90.39
1777398956842,1595142,-1.36,0.09,-0.41,-312.62,-372.50,-65.06
1777398956852,1595152,-1.47,-0.28,-1.04,-307.74,-520.14,-32.04
1777398956862,1595162,-1.35,-0.39,-1.42,-235.72,-610.66,-19.17
1777398956872,1595172,-1.03,-0.26,-1.54,-150.70,-629.52,-26.49
1777398956882,1595182,-0.63,-0.35,-1.80,-76.29,-579.28,-35.71
1777398956892,1595192,-0.25,-0.52,-1.77,6.41,-441.77,-43.58
1777398956902,1595202,-0.02,-0.44,-1.61,102.54,-239.44,-47.18
1777398956912,1595212,-0.08,-0.38,-1.36,197.02,-7.14,-39.43
1777398956922,1595222,-0.50,-0.21,-0.89,264.59,224.43,-28.50
