host_time_ms,arduino_time_ms,ax,ay,az,gx,gy,gz
1777398983402,1616835,0.02,-0.00,1.00,2.26,-4.64,-5.37
1777398983403,1616845,0.01,-0.00,1.00,2.26,-4.70,-5.25
1777398983403,1616855,0.01,-0.00,1.01,2.26,-4.64,-5.07
1777398983403,1616865,0.01,-0.00,1.00,2.32,-4.64,-4.88
1777398983403,1616875,0.01,-0.00,1.00,2.50,-4.76,-4.82
1777398983404,1616885,0.01,-0.00,1.00,2.44,-4.70,-4.82
1777398983404,1616895,0.01,-0.00,1.00,2.44,-4.58,-4.76
1777398983404,1616905,0.01,-0.00,1.00,2.62,-4.76,-4.58
1777398983404,1616915,0.01,-0.00,1.00,2.69,-4.76,-4.27
1777398983405,1616925,0.01,-0.00,1.00,2.56,-4.70,-4.33
1777398983405,1616935,0.01,-0.00,1.00,2.62,-4.64,-4.46
1777398983405,1616945,0.01,-0.00,1.00,2.50,-4.70,-4.88
1777398983406,1616955,0.02,-0.00,1.00,2.14,-4.58,-5.43
1777398983406,1616965,0.01,-0.00,1.00,2.32,-4.70,-5.13
1777398983406,1616975,0.01,-0.00,1.00,2.38,-4.70,-4.82
1777398983407,1616995,0.01,-0.00,1.00,2.44,-4.58,-4.64
1777398983407,1617015,0.01,-0.00,1.00,2.32,-4.70,-5.00
1777398983407,1617035,0.01,-0.00,1.00,2.44,-4.70,-4.82
1777398983407,1617055,0.01,-0.00,1.01,2.62,-4.70,-4.64
1777398983408,1617065,0.01,-0.00,1.00,2.69,-4.76,-4.58
1777398983408,1617075,0.01,-0.00,1.01,2.75,-4.76,-4.52
1777398983408,1617085,0.01,-0.00,1.00,2.87,-4.76,-4.39
1777398983408,1617095,0.01,-0.00,1.00,2.81,-4.76,-4.46
1777398983409,1617105,0.01,-0.00,1.00,2.81,-4.88,-4.64
1777398983409,1617115,0.01,0.00,0.99,2.62,-4.70,-4.82
1777398983409,1617125,0.01,0.00,1.00,2.44,-4.64,-4.88
1777398983409,1617135,0.01,0.00,1.00,2.38,-4.64,-4.88
1777398983410,1617145,0.01,0.00,1.00,2.38,-4.64,-4.82
1777398983410,1617155,0.01,-0.00,1.00,2.20,-4.58,-4.94
1777398983410,1617165,0.01,-0.00,1.00,2.14,-4.58,-5.31
1777398983410,1617175,0.01,-0.00,1.00,2.38,-4.70,-5.07
1777398983410,1617185,0.01,-0.00,1.00,2.62,-4.70,-4.64
1777398983411,1617195,0.01,-0.00,1.00,2.62,-4.70,-4.46
1777398983411,1617205,0.01,-0.00,1.00,2.62,-4.82,-4.33
1777398983411,1617215,0.01,-0.00,1.01,2.50,-4.70,-4.64
1777398983412,1617225,0.01,-0.00,1.00,2.50,-4.64,-5.00
1777398983412,1617235,0.01,-0.00,1.00,2.50,-4.70,-4.70
1777398983412,1617245,0.01,-0.00,1.00,2.62,-4.70,-4.46
1777398983412,1617255,0.01,-0.00,1.00,2.50,-4.70,-4.76
1777398983412,1617265,0.01,-0.00,1.00,2.38,-4.70,-5.25
1777398983413,1617275,0.02,-0.00,1.00,2.38,-4.70,-5.25
1777398983413,1617285,0.01,0.00,1.00,2.38,-4.64,-5.25
1777398983413,1617295,0.01,-0.00,1.00,2.50,-4.70,-4.88
1777398983413,1617305,0.01,-0.00,1.00,2.69,-4.76,-4.46
1777398983414,1617315,0.02,-0.00,1.00,2.50,-4.70,-4.88
1777398983414,1617325,0.01,0.00,1.00,2.32,-4.64,-5.13
1777398983414,1617345,0.01,0.00,1.00,2.44,-4.64,-4.52
1777398983414,1617365,0.01,-0.00,1.00,2.50,-4.70,-4.70
1777398983414,1617385,0.02,-0.00,1.00,2.32,-4.58,-5.13
1777398983415,1617405,0.01,-0.00,1.00,2.50,-4.64,-4.82
1777398983415,1617415,0.01,-0.00,1.00,2.44,-4.70,-4.82
1777398983415,1617425,0.01,-0.00,1.00,2.56,-4.70,-4.58
1777398983415,1617435,0.01,-0.00,1.00,2.56,-4.64,-4.33
1777398983416,1617445,0.01,-0.00,1.00,2.50,-4.70,-4.33
1777398983416,1617455,0.01,-0.00,1.00,2.56,-4.64,-4.15
1777398983416,1617465,0.01,-0.00,1.00,2.44,-4.64,-4.76
1777398983416,1617475,0.02,0.00,1.00,2.26,-4.64,-5.43
1777398983416,1617485,0.01,0.00,1.00,2.26,-4.64,-5.13
1777398983416,1617495,0.01,-0.00,1.00,2.32,-4.70,-4.94
1777398983417,1617505,0.01,-0.00,1.00,2.38,-4.64,-4.76
1777398983417,1617515,0.01,-0.00,1.00,2.56,-4.70,-4.39
1777398983417,1617525,0.01,-0.00,1.00,2.44,-4.70,-4.76
1777398983417,1617535,0.01,-0.00,1.00,2.32,-4.70,-5.07
1777398983417,1617545,0.01,-0.00,1.00,2.50,-4.64,-4.76
1777398983418,1617555,0.01,-0.00,1.00,2.62,-4.76,-4.27
1777398983418,1617565,0.01,-0.00,1.00,2.62,-4.70,-4.64
1777398983418,1617575,0.02,-0.00,1.00,2.38,-4.64,-5.00
1777398983418,1617585,0.01,-0.00,1.00,2.44,-4.64,-4.82
1777398983418,1617595,0.01,-0.00,1.00,2.44,-4.70,-4.52
1777398983419,1617605,0.01,-0.00,1.00,2.32,-4.70,-4.88
1777398983419,1617615,0.01,-0.00,1.01,2.20,-4.64,-5.25
1777398983419,1617625,0.01,-0.00,1.00,2.38,-4.64,-5.00
1777398983419,1617635,0.01,-0.00,1.00,2.56,-4.64,-4.58
1777398983419,1617645,0.01,-0.00,1.00,2.50,-4.64,-4.76
1777398983419,1617655,0.01,-0.00,1.00,2.50,-4.70,-4.88
1777398983420,1617665,0.02,-0.00,1.00,2.38,-4.70,-4.94
1777398983420,1617685,0.01,-0.00,1.00,2.32,-4.64,-5.07
1777398983420,1617705,0.01,-0.00,1.01,2.44,-4.70,-4.88
1777398983420,1617725,0.01,-0.00,1.00,2.56,-4.70,-4.64
1777398983420,1617745,0.01,-0.00,1.00,2.56,-4.76,-4.64
1777398983421,1617755,0.01,-0.00,1.00,2.50,-4.70,-4.70
1777398983421,1617765,0.01,-0.00,1.00,2.38,-4.58,-4.70
1777398983421,1617775,0.01,-0.00,1.00,2.38,-4.64,-4.76
1777398983421,1617785,0.01,-0.00,1.00,2.44,-4.64,-4.88
1777398983421,1617795,0.02,-0.00,1.00,2.32,-4.64,-5.13
1777398983422,1617805,0.01,-0.00,1.00,2.26,-4.64,-5.37
1777398983422,1617815,0.01,-0.00,1.00,2.32,-4.64,-4.88
1777398983422,1617825,0.01,0.00,0.99,2.56,-4.76,-4.33
1777398983422,1617835,0.01,-0.00,1.01,2.26,-4.76,-4.76
1777398983422,1617845,0.02,-0.00,1.00,2.14,-4.70,-5.31
1777398983422,1617855,0.01,-0.00,1.00,2.38,-4.70,-4.82
1777398983423,1617865,0.01,-0.00,1.01,2.56,-4.58,-4.27
1777398983423,1617875,0.01,-0.00,1.00,2.50,-4.76,-4.52
1777398983423,1617885,0.01,-0.00,1.01,2.38,-4.70,-4.70
1777398983423,1617895,0.01,-0.00,1.00,2.56,-4.70,-4.52
1777398983423,1617905,0.01,-0.00,1.00,2.50,-4.70,-4.27
1777398983424,1617915,0.01,0.00,1.00,2.50,-4.70,-4.46
1777398983424,1617925,0.01,-0.00,1.00,2.44,-4.70,-4.82
1777398983424,1617935,0.01,-0.00,1.00,2.44,-4.70,-4.88
1777398983424,1617945,0.01,-0.00,1.00,2.44,-4.64,-4.76
1777398983424,1617955,0.01,-0.00,1.00,2.44,-4.76,-4.94
1777398983424,1617965,0.01,-0.00,1.00,2.32,-4.58,-5.07
1777398983424,1617975,0.01,-0.00,1.00,2.44,-4.64,-4.82
1777398983425,1617985,0.01,-0.00,1.00,2.62,-4.70,-4.33
1777398983425,1617995,0.01,-0.00,1.00,2.62,-4.70,-4.27
1777398983425,1618005,0.01,-0.00,1.00,2.56,-4.64,-4.33
1777398983425,1618015,0.01,-0.00,1.00,2.62,-4.76,-4.27
1777398983425,1618035,0.01,-0.00,1.00,2.50,-4.58,-4.82
1777398983426,1618055,0.01,-0.00,1.00,2.50,-4.64,-4.82
1777398983426,1618075,0.01,-0.00,1.00,2.38,-4.64,-5.00
1777398983426,1618095,0.01,-0.00,1.00,2.50,-4.64,-4.64
1777398983426,1618105,0.01,-0.00,1.00,2.56,-4.70,-4.64
1777398983426,1618115,0.01,-0.00,1.00,2.56,-4.70,-4.58
1777398983426,1618125,0.01,-0.00,1.00,2.62,-4.76,-4.52
1777398983427,1618135,0.01,-0.00,1.00,2.56,-4.70,-4.39
1777398983427,1618145,0.01,-0.00,1.00,2.50,-4.70,-4.52
1777398983427,1618155,0.01,-0.00,1.00,2.56,-4.70,-4.58
1777398983427,1618165,0.01,-0.00,1.00,2.62,-4.76,-4.52
1777398983427,1618175,0.01,-0.00,1.00,2.69,-4.70,-4.39
1777398983427,1618185,0.01,-0.00,1.00,2.44,-4.64,-4.82
1777398983428,1618195,0.02,-0.00,0.99,2.26,-4.64,-5.43
1777398983428,1618205,0.01,-0.00,1.00,2.14,-4.64,-5.37
1777398983428,1618215,0.02,-0.00,1.00,2.32,-4.76,-5.31
1777398983428,1618225,0.01,-0.00,1.00,2.32,-4.70,-5.31
1777398983428,1618235,0.02,-0.00,1.00,2.32,-4.64,-5.31
1777398983428,1618245,0.01,0.00,1.00,2.32,-4.64,-5.19
1777398983429,1618255,0.02,-0.00,1.00,2.38,-4.70,-5.07
1777398983429,1618265,0.01,-0.00,1.00,2.32,-4.70,-5.00
1777398983429,1618275,0.01,-0.00,1.00,2.26,-4.64,-5.19
1777398983429,1618285,0.01,-0.00,1.00,2.38,-4.58,-4.94
1777398983429,1618295,0.01,-0.00,1.01,2.50,-4.64,-4.64
1777398983429,1618305,0.01,-0.00,0.99,2.62,-4.76,-4.52
1777398983430,1618315,0.01,-0.00,1.00,2.62,-4.64,-4.33
1777398983430,1618325,0.01,-0.00,1.01,2.38,-4.76,-4.82
1777398983430,1618335,0.01,-0.00,1.01,2.20,-4.70,-5.37
1777398983430,1618345,0.01,-0.00,1.00,2.38,-4.64,-5.19
1777398983430,1618355,0.01,0.00,1.00,2.38,-4.76,-5.07
1777398983430,1618375,0.01,-0.00,1.00,2.50,-4.70,-4.58
1777398983431,1618395,0.01,-0.00,1.00,2.44,-4.64,-4.88
1777398983431,1618415,0.01,0.00,1.00,2.38,-4.70,-4.88
1777398983431,1618435,0.01,-0.00,1.01,2.44,-4.70,-4.82
1777398983431,1618445,0.01,-0.00,1.00,2.50,-4.70,-4.88
1777398983431,1618455,0.02,0.00,1.00,2.38,-4.70,-5.07
1777398983431,1618465,0.02,-0.00,1.00,2.26,-4.58,-5.37
1777398983431,1618475,0.01,-0.00,1.01,2.38,-4.64,-4.94
1777398983432,1618485,0.01,-0.00,1.00,2.69,-4.70,-4.33
1777398983432,1618495,0.01,-0.00,1.00,2.62,-4.70,-4.33
1777398983432,1618505,0.01,-0.00,1.00,2.62,-4.70,-4.27
1777398983432,1618515,0.01,-0.00,1.00,2.62,-4.64,-4.33
1777398983432,1618525,0.01,-0.00,1.00,2.75,-4.70,-4.27
1777398983432,1618535,0.01,-0.00,1.00,2.56,-4.70,-4.58
1777398983432,1618545,0.02,-0.00,1.00,2.38,-4.64,-4.82
1777398983433,1618555,0.01,-0.00,1.01,2.32,-4.76,-5.07
1777398983433,1618565,0.01,-0.00,1.00,2.26,-4.76,-5.31
1777398983433,1618575,0.02,-0.00,1.00,2.26,-4.76,-5.19
1777398983433,1618585,0.02,0.00,1.00,2.26,-4.70,-5.25
1777398983433,1618595,0.01,-0.00,1.00,2.38,-4.64,-5.13
1777398983433,1618605,0.01,-0.00,1.00,2.38,-4.70,-4.88
1777398983433,1618615,0.01,-0.00,1.00,2.32,-4.76,-5.00
1777398983434,1618625,0.01,-0.00,1.00,2.38,-4.70,-4.94
1777398983434,1618635,0.01,-0.00,1.00,2.50,-4.70,-4.76
1777398983434,1618645,0.01,-0.00,1.00,2.56,-4.76,-4.76
1777398983434,1618655,0.01,-0.00,1.00,2.44,-4.70,-4.82
1777398983434,1618665,0.01,-0.00,1.00,2.38,-4.70,-4.88
1777398983434,1618675,0.01,-0.00,1.00,2.44,-4.76,-4.88
1777398983435,1618685,0.01,-0.00,1.00,2.38,-4.64,-4.94
1777398983435,1618695,0.01,-0.00,1.00,2.38,-4.58,-5.00
1777398983435,1618705,0.01,-0.00,1.00,2.32,-4.58,-4.76
1777398983435,1618725,0.01,-0.00,1.00,2.38,-4.76,-4.82
1777398983435,1618745,0.01,-0.00,1.00,2.26,-4.64,-5.13
1777398983435,1618765,0.01,-0.00,1.00,2.32,-4.58,-4.82
1777398983436,1618785,0.01,-0.00,1.00,2.50,-4.70,-4.52
1777398983436,1618795,0.01,-0.00,1.00,2.56,-4.76,-4.52
1777398983436,1618805,0.01,-0.00,1.00,2.44,-4.64,-4.88
1777398983436,1618815,0.02,-0.00,1.00,2.26,-4.70,-5.31
1777398983436,1618825,0.02,-0.00,1.00,2.26,-4.70,-5.37
1777398983436,1618835,0.02,-0.00,1.00,2.26,-4.64,-5.37
1777398983437,1618845,0.00,0.01,1.04,2.26,-4.88,-5.37
1777398983437,1618855,0.02,-0.08,1.02,0.24,-8.18,-5.98
1777398983437,1618865,0.00,-0.03,0.98,0.12,-9.34,-11.41
1777398983437,1618875,0.04,0.08,0.97,2.08,-6.47,-13.12
1777398983437,1618885,0.03,-0.04,0.95,2.69,-3.66,-7.02
1777398983437,1618895,0.01,-0.17,1.05,3.60,-1.65,-10.19
1777398983437,1618905,-0.01,-0.02,1.01,2.20,-5.25,-26.79
1777398983438,1618915,-0.01,0.11,1.01,1.95,-6.29,-28.14
1777398983438,1618925,0.02,0.06,1.03,2.20,-6.29,-15.44
1777398983438,1618935,0.01,-0.01,1.03,2.14,-8.24,-10.38
1777398983438,1618945,0.03,-0.01,0.93,2.32,-8.97,-10.19
1777398983438,1618955,0.02,-0.01,0.99,2.44,-5.55,-11.17
1777398983438,1618965,0.02,0.02,1.02,2.44,-3.91,-11.35
1777398983438,1618975,0.03,0.06,1.03,2.32,-4.64,-10.13
1777398983439,1618985,0.02,0.00,1.00,2.38,-6.29,-6.41
1777398983439,1618995,0.02,-0.00,0.97,2.38,-6.90,-4.70
1777398983439,1619005,0.02,-0.00,0.99,2.38,-4.82,-4.88
1777398983439,1619015,0.02,-0.00,1.01,2.20,-3.78,-5.31
1777398983439,1619025,0.02,-0.00,1.01,2.38,-3.54,-4.94
1777398983439,1619035,0.00,0.02,1.03,2.50,-4.09,-4.64
1777398983439,1619045,-0.03,0.12,0.99,2.44,-5.74,12.70
1777398983440,1619065,-0.00,0.02,1.01,2.62,-7.32,10.93
1777398983440,1619085,-0.02,0.07,1.02,2.14,-8.12,6.16
1777398983440,1619105,-0.03,0.05,1.03,2.08,-8.24,7.87
1777398983440,1619125,-0.03,0.04,1.05,2.38,-7.93,7.51
1777398983440,1619135,-0.02,0.02,1.00,2.44,-9.64,7.32
1777398983440,1619145,-0.01,-0.02,1.00,2.62,-9.34,6.77
1777398983441,1619155,0.01,-0.05,0.95,2.62,-8.61,2.20
1777398983441,1619165,0.01,-0.03,0.98,2.26,-6.16,-6.77
1777398983441,1619175,0.03,-0.03,0.95,2.56,-3.85,-12.15
1777398983441,1619185,0.05,-0.03,0.96,2.14,-0.85,-13.85
1777398983441,1619195,0.05,0.05,0.96,2.81,2.01,-14.40
1777398983441,1619205,0.07,0.01,0.99,2.56,4.64,-6.53
1777398983441,1619215,0.04,-0.01,1.03,2.38,4.94,-0.06
1777398983441,1619225,0.04,-0.02,1.06,2.44,2.26,1.22
1777398983442,1619235,0.04,-0.05,1.06,2.56,-2.62,0.55
1777398983442,1619245,0.02,-0.04,1.06,2.32,-7.87,-1.95
1777398983442,1619255,0.03,-0.05,1.02,2.32,-12.51,-5.80
1777398983442,1619265,0.03,-0.05,1.01,2.44,-13.85,-8.12
1777398983442,1619275,0.04,-0.04,1.00,2.87,-14.16,-12.02
1777398983442,1619285,0.05,-0.02,0.98,2.81,-13.73,-13.06
1777398983442,1619295,0.07,-0.02,0.95,2.56,-12.02,-10.99
1777398983443,1619305,0.07,-0.02,0.93,2.44,-8.73,-9.22
1777398983443,1619315,0.07,-0.01,0.94,2.14,-4.15,-8.24
1777398983443,1619325,0.09,-0.02,0.97,2.26,0.37,-6.29
1777398983443,1619335,0.08,-0.02,1.00,2.26,2.81,-5.68
1777398983443,1619345,0.08,-0.02,1.02,2.08,2.87,-5.19
1777398983443,1619355,0.03,-0.02,1.04,2.08,2.08,-4.58
1777398983443,1619365,0.02,-0.00,1.04,2.26,-0.79,-4.58
1777398983443,1619375,0.01,-0.00,1.03,2.32,-2.87,-4.76
1777398983444,1619385,0.02,-0.00,1.02,2.38,-5.13,-4.70
1777398983444,1619395,0.02,-0.00,1.00,2.44,-5.86,-4.64
1777398983444,1619415,0.02,-0.00,0.99,2.50,-5.00,-4.70
1777398983444,1619435,0.02,-0.00,1.00,2.50,-3.91,-4.70
1777398983444,1619455,0.02,-0.00,1.01,2.32,-3.97,-5.00
1777398983444,1619475,0.02,-0.00,1.01,2.26,-5.49,-5.00
1777398983444,1619485,0.02,-0.00,1.01,2.20,-6.16,-5.07
1777398983445,1619495,0.02,-0.00,1.00,2.26,-6.47,-5.25
1777398983445,1619505,0.02,-0.00,1.00,2.44,-6.23,-4.82
1777398983445,1619515,0.02,-0.00,1.00,2.62,-5.86,-4.46
1777398983445,1619525,0.03,-0.00,0.99,2.69,-5.49,-4.21
1777398983445,1619535,-0.04,0.21,1.00,2.62,-5.43,-2.14
1777398983445,1619545,0.00,0.00,0.96,2.75,-5.13,9.34
1777398983446,1619555,0.01,-0.10,0.97,2.56,-2.08,8.42
1777398983446,1619565,0.00,-0.06,0.98,2.56,0.00,-2.69
1777398983446,1619575,0.01,-0.02,1.03,2.50,1.40,-8.48
1777398983446,1619585,0.03,-0.01,1.03,2.38,-0.37,-8.18
1777398983446,1619595,0.04,-0.02,1.02,2.26,-2.44,-6.41
1777398983446,1619605,0.05,-0.02,1.01,2.32,-4.33,-6.71
1777398983446,1619615,0.05,-0.01,1.00,2.26,-5.00,-6.53
1777398983447,1619625,0.05,-0.02,0.99,2.32,-4.94,-5.37
1777398983447,1619635,0.03,0.00,0.99,2.56,-4.46,-4.64
1777398983447,1619645,0.02,-0.00,0.99,2.38,-3.78,-4.64
1777398983447,1619655,0.02,-0.00,1.00,2.26,-2.99,-5.00
1777398983447,1619665,0.02,-0.00,1.00,2.26,-2.81,-5.13
1777398983447,1619675,0.02,-0.00,1.01,2.26,-2.87,-5.25
1777398983447,1619685,0.02,-0.00,1.01,2.38,-3.17,-4.94
1777398983448,1619695,0.02,-0.00,1.01,2.44,-3.78,-4.70
1777398983448,1619705,0.02,-0.00,1.00,2.50,-4.27,-4.70
1777398983448,1619715,0.02,-0.00,1.00,2.44,-4.52,-4.64
1777398983448,1619725,0.02,-0.00,1.00,2.32,-4.39,-5.00
1777398983448,1619735,0.02,0.00,0.99,2.26,-4.21,-5.25
1777398983448,1619755,0.02,0.00,1.00,2.32,-2.87,-4.94
1777398983448,1619775,0.02,-0.00,1.01,2.38,-2.62,-4.88
1777398983448,1619795,0.01,0.00,1.01,2.69,-2.87,-4.94
1777398983449,1619815,0.02,-0.00,0.98,2.38,-4.82,-4.94
1777398983449,1619825,0.01,-0.00,1.01,2.32,-4.46,-5.07
1777398983449,1619835,0.02,-0.00,1.00,2.26,-4.64,-5.07
1777398983449,1619845,0.01,-0.00,1.00,2.26,-4.76,-5.07
1777398983449,1619855,0.02,-0.00,1.00,2.32,-4.64,-4.88
1777398983449,1619865,0.01,-0.00,1.00,2.38,-4.58,-4.70
1777398983449,1619875,0.02,-0.00,1.00,2.26,-4.76,-4.94
1777398983449,1619885,0.02,-0.00,1.00,2.26,-4.52,-5.13
1777398983450,1619895,0.01,-0.00,1.00,2.44,-4.52,-4.70
1777398983450,1619905,0.01,-0.00,1.00,2.81,-4.39,-4.15
1777398983450,1619915,0.02,-0.00,1.00,2.75,-4.03,-4.58
1777398983450,1619925,0.02,0.01,0.99,2.56,-3.72,-5.19
1777398983450,1619935,0.01,0.01,0.99,2.99,-3.11,-4.33
1777398983450,1619945,0.01,-0.01,1.00,4.09,-2.01,-3.11
1777398983450,1619955,0.02,-0.01,0.99,3.60,-2.81,-3.66
1777398983450,1619965,0.02,-0.00,0.99,2.32,-4.82,-4.64
1777398983451,1619975,0.01,-0.00,1.00,2.44,-4.70,-4.76
1777398983451,1619985,0.01,0.01,1.00,2.32,-4.70,-4.58
1777398983451,1619995,0.01,0.01,1.00,2.44,-4.64,-4.15
1777398983451,1620005,0.02,-0.00,1.00,2.38,-4.64,-3.78
1777398983451,1620015,0.02,-0.01,1.00,2.44,-4.46,-3.97
1777398983451,1620025,0.02,-0.00,1.00,2.56,-4.27,-4.70
1777398983451,1620035,0.01,0.00,1.01,2.87,-4.03,-4.94
1777398983451,1620045,0.02,-0.03,1.00,2.93,-4.09,-5.07
1777398983452,1620055,0.02,-0.04,1.00,2.56,-4.39,-8.54
1777398983452,1620065,0.00,0.02,1.00,2.32,-4.52,-14.04
1777398983452,1620075,0.01,0.03,1.00,2.38,-4.70,-12.45
1777398983452,1620085,0.02,0.02,1.00,2.44,-5.00,-4.94
1777398983452,1620105,0.01,-0.00,1.00,2.69,-4.52,-4.64
1777398983452,1620125,0.01,-0.00,1.00,2.50,-4.46,-4.64
1777398983452,1620145,0.01,-0.00,1.00,2.20,-4.76,-5.19
1777398983452,1620165,0.01,-0.00,1.00,2.32,-4.76,-5.13
1777398983453,1620175,0.01,-0.00,1.00,2.50,-4.70,-4.64
1777398983453,1620185,0.01,-0.00,1.00,2.62,-4.64,-4.76
1777398983453,1620195,0.01,-0.00,1.00,2.50,-4.58,-4.88
1777398983453,1620205,0.01,-0.00,1.00,2.50,-4.70,-4.70
1777398983453,1620215,0.01,-0.00,1.00,2.56,-4.76,-4.46
1777398983453,1620225,0.01,-0.00,1.00,2.50,-4.76,-4.58
1777398983453,1620235,0.01,-0.00,1.00,2.44,-4.70,-4.70
1777398983454,1620245,0.01,-0.00,1.00,2.50,-4.70,-4.88
1777398983454,1620255,0.01,-0.00,1.00,2.44,-4.64,-4.94
1777398983454,1620265,0.01,-0.00,1.00,2.44,-4.58,-4.76
1777398983454,1620275,0.01,-0.00,1.00,2.50,-4.76,-4.64
1777398983454,1620285,0.01,-0.00,1.00,2.56,-4.70,-4.46
1777398983454,1620295,0.01,-0.00,1.00,2.56,-4.70,-4.46
1777398983454,1620305,0.01,-0.00,1.00,2.56,-4.70,-4.39
1777398983454,1620315,0.01,-0.00,1.00,2.50,-4.70,-4.39
1777398983455,1620325,0.01,-0.00,1.00,2.38,-4.64,-4.76
1777398983455,1620335,0.01,-0.00,1.00,2.20,-4.64,-5.31
1777398983455,1620345,0.01,-0.00,1.00,2.32,-4.64,-5.07
1777398983455,1620355,0.01,-0.00,1.00,2.44,-4.64,-4.76
1777398983455,1620365,0.01,-0.00,1.00,2.32,-4.64,-4.94
1777398983455,1620375,0.01,-0.00,1.00,2.38,-4.58,-5.19
1777398983455,1620385,0.01,-0.00,1.00,2.32,-4.64,-5.00
1777398983455,1620395,0.01,-0.00,1.00,2.44,-4.64,-4.76
1777398983456,1620405,0.01,-0.00,1.00,2.44,-4.58,-4.82
1777398983456,1620415,0.01,-0.00,1.00,2.38,-4.70,-4.88
1777398983456,1620425,0.01,-0.00,1.00,2.50,-4.70,-4.76
1777398983456,1620445,0.01,-0.00,1.00,2.38,-4.58,-5.00
1777398983456,1620465,0.01,0.00,1.00,2.26,-4.64,-5.37
1777398983456,1620485,0.01,0.00,0.98,2.44,-4.70,-4.88
1777398983456,1620505,0.01,-0.00,1.00,2.08,-4.70,-5.00
1777398983456,1620515,-0.28,-0.28,1.00,2.01,-4.76,-1.89
1777398983457,1620525,-0.07,-0.56,1.01,2.14,-4.52,27.47
1777398983457,1620535,0.09,-0.38,1.01,2.08,-5.07,38.64
1777398983457,1620545,0.12,-0.22,1.00,1.71,-5.37,38.94
1777398983457,1620555,0.12,-0.27,1.01,1.10,-5.68,65.43
1777398983457,1620565,0.10,-0.31,0.97,1.40,-5.62,82.28
1777398983457,1620575,0.05,-0.17,1.02,1.16,-5.62,78.19
1777398983457,1620585,0.43,1.87,1.02,-0.37,-5.74,59.20
1777398983457,1620595,0.01,1.09,1.04,2.01,-1.77,-2.93
1777398983458,1620605,0.15,0.30,1.03,13.37,3.48,-5.49
1777398983458,1620615,0.09,-0.33,1.01,6.96,12.82,23.74
1777398983458,1620625,0.00,-0.22,1.14,17.82,17.82,23.80
1777398983458,1620635,-0.04,-0.10,0.96,27.40,10.19,18.07
1777398983458,1620645,-0.02,-0.07,0.88,20.69,1.83,7.26
1777398983458,1620655,-0.08,-0.05,1.00,7.81,4.03,-2.93
1777398983458,1620665,-0.09,-0.06,0.98,3.30,5.07,-9.46
1777398983458,1620675,-0.05,-0.01,1.08,4.03,9.89,-15.32
1777398983459,1620685,-0.02,-0.00,0.99,2.01,11.66,-16.30
1777398983459,1620695,-0.07,0.05,1.04,-1.46,16.30,-17.09
1777398983459,1620705,-0.05,0.10,1.07,-2.50,25.57,-21.12
1777398983459,1620715,-0.11,0.16,1.13,2.75,36.44,-24.84
1777398983459,1620725,-0.09,0.15,1.17,8.67,43.46,-27.22
1777398983459,1620735,-0.10,0.09,1.15,10.80,49.19,-29.91
1777398983459,1620745,-0.07,0.07,1.15,6.84,54.99,-32.41
1777398983459,1620755,-0.06,0.04,1.11,-2.69,57.25,-33.45
1777398983460,1620765,-0.01,0.09,1.10,-15.38,53.89,-33.08
1777398983460,1620775,-0.12,-0.02,0.97,-32.47,44.13,-30.27
1777398983460,1620795,-0.10,0.04,0.94,-23.86,21.06,-27.71
1777398983460,1620815,-0.08,-0.05,0.91,6.47,15.32,-23.74
1777398983460,1620835,-0.09,-0.11,0.93,6.47,6.47,-14.47
1777398983460,1620855,-0.11,-0.06,0.94,-23.01,-9.28,-8.42
1777398983460,1620865,-0.10,-0.01,0.94,-32.96,-16.85,-7.26
1777398983460,1620875,-0.08,0.02,0.95,-36.74,-23.01,-7.02
1777398983461,1620885,-0.09,-0.02,0.93,-32.78,-27.04,-7.08
1777398983461,1620895,-0.11,-0.03,0.96,-26.43,-28.02,-7.69
1777398983461,1620905,-0.12,-0.06,0.93,-21.48,-29.17,-8.36
1777398983461,1620915,-0.13,-0.07,0.95,-16.05,-27.65,-10.56
1777398983461,1620925,-0.11,-0.09,0.96,-9.09,-24.72,-13.31
1777398983461,1620935,-0.10,-0.12,0.98,-4.39,-22.03,-14.10
1777398983461,1620945,-0.09,-0.14,1.02,-4.58,-18.13,-12.02
1777398983461,1620955,-0.09,-0.12,1.03,-5.25,-13.61,-9.34
1777398983462,1620965,-0.09,-0.10,1.03,-11.23,-12.02,-7.39
1777398983462,1620975,-0.08,-0.07,1.04,-16.85,-13.55,-6.84
1777398983462,1620985,-0.09,-0.04,1.03,-18.62,-16.42,-6.10
1777398983462,1620995,-0.10,-0.05,1.03,-17.58,-18.49,-6.71
1777398983462,1621005,-0.10,-0.09,1.06,-14.40,-18.49,-9.03
1777398983462,1621015,-0.10,-0.09,1.06,-15.14,-17.94,-12.33
1777398983462,1621025,-0.08,-0.08,1.04,-23.38,-18.62,-14.28
1777398983463,1621035,-0.08,-0.12,1.04,-32.17,-18.80,-14.28
1777398983463,1621045,-0.08,-0.10,1.03,-33.94,-18.92,-15.75
1777398983463,1621055,-0.06,-0.11,1.04,-29.97,-15.99,-15.75
1777398983463,1621065,-0.08,-0.11,1.03,-18.31,-9.58,-14.65
1777398983463,1621075,-0.06,-0.12,1.03,-4.03,-1.89,-13.43
1777398983463,1621085,-0.06,-0.13,1.04,7.75,4.58,-12.76
1777398983463,1621095,-0.05,-0.17,1.04,11.84,7.08,-11.17
1777398983463,1621105,-0.05,-0.18,1.07,9.22,8.48,-8.48
1777398983464,1621115,-0.07,-0.19,1.10,5.19,11.05,-6.23
1777398983464,1621135,-0.10,-0.09,1.11,26.98,42.60,-7.81
1777398983464,1621155,-0.26,0.30,1.19,143.80,100.16,-8.36
1777398983464,1621175,-0.22,0.50,1.53,389.22,228.64,1.95
1777398983464,1621195,-0.25,0.26,1.77,614.20,347.11,41.56
1777398983464,1621205,-0.21,0.07,1.72,660.40,371.95,54.69
1777398983464,1621215,-0.03,-0.37,1.64,650.76,376.53,61.22
1777398983464,1621225,0.04,-0.61,1.26,554.57,354.55,58.04
1777398983464,1621235,-0.14,-0.88,1.11,301.15,283.45,44.74
1777398983465,1621245,-0.22,-0.45,1.06,-92.96,138.92,-12.21
1777398983465,1621255,-0.32,0.43,1.02,-506.77,-32.84,-82.28
1777398983465,1621265,-0.46,0.89,0.83,-766.17,-169.19,-109.01
1777398983465,1621275,-0.54,1.10,0.62,-806.09,-230.77,-109.19
1777398983465,1621285,-0.54,1.11,0.60,-682.68,-201.60,-102.42
1777398983465,1621295,-0.57,0.87,0.58,-479.49,-121.95,-81.24
1777398983466,1621305,-0.62,0.73,0.44,-279.60,-49.99,-60.36
1777398983466,1621315,-0.50,0.45,0.47,-117.43,-0.37,-42.05
1777398983466,1621325,-0.46,0.22,0.69,55.85,55.66,-11.29
1777398983466,1621335,-0.47,0.08,0.80,215.33,114.14,29.97
1777398983466,1621345,-0.48,0.09,0.86,313.84,158.33,68.85
1777398983466,1621355,-0.52,0.18,0.94,343.02,176.88,95.70
1777398983466,1621365,-0.53,0.25,0.91,346.01,176.51,108.15
1777398983466,1621375,-0.53,0.15,0.88,347.53,171.81,108.28
1777398983467,1621385,-0.39,-0.18,0.82,336.24,170.41,96.56
1777398983467,1621395,-0.49,-0.27,0.85,238.10,155.52,82.64
1777398983467,1621405,-0.43,-0.12,0.93,31.01,79.04,47.12
1777398983467,1621415,-0.51,0.18,0.59,-181.03,-21.48,1.46
1777398983467,1621425,-0.65,0.60,0.52,-311.28,-79.16,-28.44
1777398983467,1621435,-0.77,0.90,0.40,-303.47,-97.90,-39.12
1777398983467,1621445,-0.85,1.25,0.38,-145.14,-52.55,-27.22
1777398983467,1621455,-0.71,1.13,0.48,94.54,29.97,0.49
1777398983468,1621465,-0.77,0.92,0.65,334.17,187.32,65.06
1777398983468,1621485,-0.73,0.66,0.89,610.35,209.66,75.20
1777398983468,1621505,-0.59,-0.22,0.84,553.16,228.70,38.82
1777398983468,1621525,-0.44,-0.36,0.48,31.74,129.64,-17.46
1777398983468,1621545,-0.56,0.76,0.26,-442.08,-82.09,-68.60
1777398983468,1621555,-0.73,1.01,0.06,-441.28,-133.85,-66.22
1777398983468,1621565,-0.86,1.21,0.15,-308.41,-107.85,-58.47
1777398983468,1621575,-0.72,1.16,0.12,-108.70,-47.55,-38.15
1777398983468,1621585,-0.75,0.93,0.23,82.70,22.58,-8.36
1777398983469,1621595,-0.70,0.67,0.38,209.90,65.31,16.48
1777398983469,1621605,-0.72,0.53,0.46,280.40,86.98,33.20
1777398983469,1621615,-0.76,0.56,0.47,299.44,96.37,38.76
1777398983469,1621625,-0.74,0.35,0.53,282.29,99.06,32.17
1777398983469,1621635,-0.64,-0.05,0.55,234.01,109.92,24.96
1777398983469,1621645,-0.54,-0.16,0.55,93.93,105.83,16.42
1777398983469,1621655,-0.48,0.10,0.45,-132.14,50.90,-5.98
1777398983469,1621665,-0.55,0.55,0.28,-343.75,-36.07,-30.03
1777398983470,1621675,-0.73,0.88,0.31,-439.21,-112.30,-47.61
1777398983470,1621685,-0.59,0.69,0.03,-418.40,-144.41,-52.06
1777398983470,1621695,-0.77,0.89,0.25,-359.80,-134.28,-53.41
1777398983470,1621705,-0.75,1.05,0.20,-271.79,-121.40,-43.70
1777398983470,1621715,-0.81,1.15,0.11,-139.89,-91.49,-20.14
1777398983470,1621725,-0.88,1.33,0.18,20.75,-40.34,6.71
1777398983470,1621735,-0.81,1.31,0.32,215.76,22.28,36.62
1777398983470,1621745,-0.82,1.24,0.49,411.38,92.35,67.38
1777398983471,1621755,-0.77,1.16,0.63,540.71,138.18,88.38
1777398983471,1621765,-0.83,0.91,0.69,615.60,158.20,95.03
1777398983475,1621775,-0.74,0.49,0.76,628.66,160.46,83.86
1777398983485,1621785,-0.66,-0.20,0.71,546.75,159.36,63.72
1777398983495,1621795,-0.61,-0.66,0.61,315.80,131.41,30.46
1777398983505,1621805,-0.44,-0.51,0.54,-55.54,51.03,-48.83
1777398983525,1621825,-0.56,0.63,0.16,-658.94,-207.64,-56.70
1777398983545,1621845,-0.77,1.67,-0.01,-439.82,-181.46,-39.37
1777398983565,1621865,-0.80,1.69,0.12,109.01,-15.93,8.18
1777398983585,1621885,-0.72,0.93,0.60,534.48,120.48,65.31
1777398983595,1621895,-0.73,0.71,0.71,559.75,133.36,71.66
1777398983605,1621905,-0.76,0.20,0.69,502.62,114.38,57.86
1777398983615,1621915,-0.67,-0.22,0.78,387.94,106.99,38.94
1777398983625,1621925,-0.63,-0.34,0.86,136.72,88.13,17.21
1777398983635,1621935,-0.45,-0.16,0.78,-203.74,24.84,-11.78
1777398983645,1621945,-0.56,0.63,0.48,-479.55,-57.98,-36.07
1777398983655,1621955,-0.62,0.90,0.30,-592.77,-130.25,-52.19
1777398983665,1621965,-0.67,1.16,0.20,-533.81,-150.09,-55.36
1777398983675,1621975,-0.80,1.50,0.07,-410.58,-130.74,-48.83
1777398983685,1621985,-0.69,1.51,0.01,-221.44,-88.68,-39.00
1777398983695,1621995,-0.73,1.49,0.09,19.90,-17.21,-6.65
1777398983705,1622005,-0.68,1.35,0.18,224.06,30.58,22.03
1777398983715,1622015,-0.69,1.14,0.40,403.02,75.26,41.81
1777398983725,1622025,-0.66,1.00,0.51,514.83,105.96,57.01
1777398983735,1622035,-0.72,0.69,0.62,532.04,111.39,59.75
1777398983745,1622045,-0.65,0.22,0.63,485.60,104.92,49.01
1777398983755,1622055,-0.61,-0.25,0.66,354.25,106.51,31.86
1777398983765,1622065,-0.58,-0.34,0.67,96.19,80.02,5.19
1777398983777,1622075,-0.52,0.02,0.61,-224.85,9.16,-27.10
1777398983785,1622085,-0.46,0.39,0.40,-471.98,-68.48,-40.16
1777398983795,1622095,-0.51,0.62,0.30,-581.60,-124.02,-48.10
1777398983805,1622105,-0.70,1.28,0.26,-560.30,-138.37,-48.71
1777398983817,1622115,-0.83,1.91,-0.09,-455.26,-143.86,-44.37
1777398983825,1622125,-0.64,1.87,-0.19,-207.89,-98.45,-32.35
1777398983835,1622135,-0.65,1.67,0.02,119.93,-0.55,4.64
1777398983849,1622145,-0.58,1.25,0.23,356.51,53.71,38.33
1777398983855,1622155,-0.57,0.95,0.45,490.11,64.51,70.62
1777398983875,1622175,-0.61,0.61,0.49,399.11,23.19,47.79
1777398983897,1622195,-0.61,-0.24,0.68,-65.55,1.59,14.04
1777398983915,1622215,-0.54,0.60,0.31,-510.38,-96.50,-21.61
1777398983935,1622235,-0.68,1.65,-0.04,-440.31,-112.85,-27.89
1777398983945,1622245,-0.59,1.70,-0.16,-231.69,-83.07,-23.68
1777398983955,1622255,-0.55,1.63,-0.06,34.97,-23.50,-10.07
1777398983965,1622265,-0.47,1.35,0.09,276.31,20.14,11.29
1777398983975,1622275,-0.50,1.18,0.29,449.65,40.71,31.19
1777398983985,1622285,-0.56,1.14,0.38,520.81,40.89,41.20
1777398983995,1622295,-0.74,1.07,0.54,520.81,29.30,32.10
1777398984005,1622305,-0.85,0.83,0.61,484.50,17.64,4.46
1777398984015,1622315,-0.75,0.37,0.75,406.37,29.42,-23.50
1777398984025,1622325,-0.65,-0.17,0.69,241.76,56.09,-27.22
1777398984035,1622335,-0.50,-0.37,0.58,-17.70,54.44,-23.01
1777398984045,1622345,-0.32,0.03,0.43,-303.41,7.69,-17.21
1777398984055,1622355,-0.35,0.47,0.29,-525.09,-71.59,-7.02
1777398984065,1622365,-0.41,0.76,0.30,-603.88,-137.33,1.04
1777398984075,1622375,-0.66,1.45,0.19,-561.58,-155.88,10.50
1777398984085,1622385,-0.70,1.82,-0.00,-429.63,-146.61,9.77
1777398984095,1622395,-0.58,1.85,-0.06,-183.47,-95.70,12.51
1777398984105,1622405,-0.60,1.63,0.02,85.82,-26.92,28.26
1777398984115,1622415,-0.55,1.35,0.20,264.47,7.87,35.40
1777398984127,1622425,-0.58,1.10,0.40,361.08,20.75,33.45
1777398984135,1622435,-0.60,0.96,0.49,382.57,22.03,26.31
1777398984145,1622445,-0.61,0.59,0.61,334.96,15.14,16.97
1777398984155,1622455,-0.53,0.09,0.71,239.87,23.86,17.03
1777398984165,1622465,-0.48,-0.15,0.68,57.13,39.37,26.12
1777398984175,1622475,-0.31,-0.04,0.67,-201.11,16.97,26.79
1777398984185,1622485,-0.33,0.37,0.54,-443.12,-43.33,22.16
1777398984195,1622495,-0.42,0.75,0.52,-581.24,-112.73,-6.96
1777398984215,1622515,-0.62,1.98,0.08,-159.91,-84.96,-4.33
1777398984235,1622535,-0.52,1.43,0.48,333.74,45.23,35.28
1777398984255,1622555,-0.70,1.25,0.88,491.76,73.49,30.40
1777398984275,1622575,-0.84,1.02,0.99,413.33,86.24,-48.16
1777398984285,1622585,-0.62,0.61,0.98,345.34,130.25,-85.14
1777398984295,1622595,-0.48,0.17,0.83,232.67,186.77,-102.36
1777398984305,1622605,-0.26,0.10,0.63,45.59,204.22,-118.16
1777398984315,1622615,-0.11,0.02,0.39,-165.10,158.02,-131.29
1777398984325,1622625,-0.21,0.33,0.14,-338.93,80.99,-133.06
1777398984335,1622635,-0.24,0.40,0.05,-441.65,4.70,-133.30
1777398984345,1622645,-0.22,0.37,0.11,-452.15,-31.01,-126.34
1777398984355,1622655,-0.31,0.34,0.24,-446.78,-38.02,-112.55
1777398984365,1622665,-0.63,1.02,0.22,-460.57,-51.03,-102.78
1777398984375,1622675,-0.79,1.46,0.28,-408.08,-55.85,-102.29
1777398984385,1622685,-0.86,1.79,0.35,-231.93,-4.39,-95.40
1777398984395,1622695,-0.84,1.91,0.62,-1.65,84.11,-76.23
1777398984405,1622705,-0.89,1.72,1.04,230.16,183.72,-42.18
1777398984415,1622715,-1.01,1.53,1.36,410.77,275.76,-7.75
1777398984425,1622725,-1.03,1.46,1.44,490.11,332.89,-1.89
1777398984435,1622735,-0.90,1.39,1.23,496.58,351.32,-27.89
1777398984445,1622745,-0.66,1.14,0.95,478.27,357.36,-75.01
1777398984455,1622755,-0.34,0.52,0.51,442.44,353.52,-132.32
1777398984465,1622765,-0.07,-0.37,0.03,363.22,331.73,-192.08
1777398984475,1622775,0.33,-0.97,-0.38,201.05,268.49,-245.67
1777398984485,1622785,0.63,-1.43,-0.70,-48.58,146.24,-276.79
1777398984495,1622795,0.57,-1.39,-0.86,-334.72,-16.17,-273.62
1777398984505,1622805,0.50,-1.28,-0.84,-594.60,-187.50,-250.55
1777398984515,1622815,0.30,-1.07,-0.57,-776.79,-324.40,-231.45
1777398984525,1622825,-0.14,-0.47,-0.13,-914.00,-434.45,-228.45
1777398984535,1622835,-0.57,0.17,0.27,-1017.58,-537.48,-242.55
1777398984545,1622845,-0.95,0.49,0.70,-1015.32,-579.65,-293.46
1777398984565,1622865,-1.08,0.31,1.53,-687.50,-512.45,-323.79
1777398984585,1622885,-1.10,0.43,1.34,-260.01,-269.78,-182.01
1777398984605,1622905,-1.12,-0.80,2.34,544.43,338.01,221.50
1777398984625,1622925,-1.29,0.15,2.04,670.72,582.64,370.79
1777398984635,1622935,-1.14,0.46,1.54,710.57,595.52,363.34
1777398984645,1622945,-1.03,0.41,0.80,772.89,594.73,346.68
1777398984655,1622955,-0.52,-0.21,0.29,801.51,579.83,309.51
1777398984665,1622965,-0.02,-1.10,-0.48,769.84,544.25,241.27
1777398984675,1622975,0.42,-1.57,-1.09,548.77,423.28,134.58
1777398984685,1622985,0.37,-1.00,-1.07,123.47,165.16,-9.40
1777398984695,1622995,-0.06,-0.35,-0.76,-355.04,-153.32,-141.36
1777398984705,1623005,-0.66,0.40,-0.55,-666.02,-369.45,-220.58
1777398984715,1623015,-0.88,0.92,-0.44,-721.62,-424.01,-253.91
1777398984725,1623025,-0.99,1.09,-0.16,-582.76,-363.46,-250.00
1777398984735,1623035,-1.23,1.09,0.32,-368.59,-266.05,-203.98
1777398984745,1623045,-1.36,0.91,0.78,-133.24,-166.08,-132.81
1777398984755,1623055,-1.49,0.72,1.27,114.20,-28.32,-37.35
1777398984765,1623065,-1.59,0.51,1.61,334.23,146.06,65.31
1777398984775,1623075,-1.62,0.52,1.71,468.44,315.80,143.62
1777398984785,1623085,-1.51,0.53,1.40,530.03,420.90,173.77
1777398984795,1623095,-1.13,0.30,0.96,552.55,464.11,159.30
1777398984805,1623105,-0.52,-0.19,0.42,531.86,468.51,114.81
1777398984815,1623115,-0.30,-0.79,-0.24,390.75,407.47,41.50
1777398984825,1623125,0.24,-0.86,-0.75,111.39,237.55,-64.82
1777398984835,1623135,0.26,-0.47,-1.05,-207.03,19.53,-173.77
1777398984845,1623145,0.20,-0.13,-1.27,-464.54,-198.79,-256.29
1777398984855,1623155,0.15,-0.12,-1.34,-584.59,-350.77,-308.59
1777398984865,1623165,-0.01,0.01,-1.12,-594.85,-429.69,-336.61
1777398984875,1623175,-0.25,0.07,-0.72,-577.88,-497.86,-342.22
1777398984885,1623185,-0.50,-0.00,-0.19,-523.25,-544.68,-282.53
1777398984905,1623205,-1.22,0.30,0.91,-101.87,-344.06,-98.14
1777398984925,1623225,-1.59,-0.02,2.50,381.96,211.24,228.82
1777398984945,1623245,-1.66,0.17,2.14,555.48,527.53,333.07
1777398984965,1623265,-0.58,-0.19,0.27,452.15,480.10,193.48
1777398984975,1623275,-0.16,-0.41,-0.72,235.60,353.76,40.77
1777398984985,1623285,0.27,-0.02,-1.33,-48.16,162.66,-130.74
1777398984995,1623295,0.03,0.59,-1.63,-317.50,-44.86,-265.99
1777398985005,1623305,-0.02,0.76,-1.77,-466.37,-220.28,-349.18
1777398985015,1623315,-0.09,0.61,-1.69,-434.08,-299.80,-382.32
1777398985025,1623325,-0.21,0.33,-1.22,-324.04,-330.81,-387.82
1777398985035,1623335,-0.33,0.05,-0.64,-234.01,-379.52,-370.97
1777398985045,1623345,-0.53,-0.22,0.10,-153.02,-421.08,-306.70
1777398985055,1623355,-1.04,-0.33,0.99,-58.47,-398.93,-194.58
1777398985065,1623365,-1.48,-0.22,1.76,54.93,-286.01,-62.74
1777398985075,1623375,-1.67,-0.34,2.38,206.42,-62.44,65.92
1777398985085,1623385,-1.69,-0.48,2.69,349.06,210.08,169.74
1777398985095,1623395,-1.45,-0.42,2.51,392.52,406.80,227.05
1777398985105,1623405,-1.24,-0.02,1.94,334.47,484.37,219.85
1777398985115,1623415,-0.82,0.22,0.95,209.11,446.41,148.38
1777398985125,1623425,-0.47,0.34,-0.21,76.48,347.90,37.84
1777398985135,1623435,-0.23,0.49,-1.06,-63.48,210.33,-90.76
1777398985145,1623445,-0.17,0.58,-1.61,-189.76,47.24,-206.79
1777398985155,1623455,-0.07,0.72,-1.76,-245.48,-92.16,-279.17
1777398985165,1623465,-0.04,0.49,-1.65,-226.81,-186.95,-321.53
1777398985175,1623475,-0.20,0.21,-1.16,-177.37,-263.12,-347.60
1777398985185,1623485,-0.44,-0.10,-0.53,-151.67,-356.87,-352.48
1777398985195,1623495,-0.66,-0.40,0.19,-112.49,-420.04,-312.93
1777398985205,1623505,-1.10,-0.69,1.11,-45.41,-398.07,-220.76
1777398985215,1623515,-1.34,-0.89,2.02,49.13,-271.42,-94.91
1777398985225,1623525,-1.60,-1.34,2.69,139.04,-62.07,41.44
1777398985235,1623535,-1.73,-1.39,3.05,170.96,316.47,208.13
1777398985255,1623555,-1.32,-0.51,2.17,26.37,453.61,202.45
1777398985275,1623575,0.37,0.86,-1.65,-85.75,349.30,-11.23
1777398985295,1623595,0.73,1.36,-3.17,-177.37,-14.53,-250.85
1777398985315,1623615,0.60,0.57,-2.45,-44.43,-321.23,-300.66
1777398985325,1623625,0.35,0.09,-1.39,33.45,-438.72,-278.63
1777398985335,1623635,-0.11,-0.29,-0.02,88.68,-528.56,-238.10
1777398985345,1623645,-0.63,-0.63,1.36,129.21,-553.10,-174.68
1777398985355,1623655,-1.01,-0.90,2.68,146.06,-472.05,-91.55
1777398985365,1623665,-1.29,-1.32,3.49,168.88,-267.52,6.41
1777398985375,1623675,-1.36,-1.65,3.76,195.31,-8.36,102.42
1777398985385,1623685,-1.30,-1.67,3.57,182.68,200.81,186.16
1777398985395,1623695,-1.34,-1.38,3.00,142.64,323.43,257.51
1777398985405,1623705,-1.21,-0.89,2.28,110.05,392.88,306.52
1777398985415,1623715,-0.79,-0.26,1.20,95.95,443.05,334.29
1777398985425,1623725,-0.26,0.38,-0.17,81.18,459.78,324.40
1777398985435,1623735,0.44,0.65,-1.53,73.61,404.30,250.92
1777398985445,1623745,0.91,0.76,-2.50,52.86,272.95,109.01
1777398985455,1623755,0.70,1.03,-2.69,-62.99,42.97,-73.55
1777398985465,1623765,0.40,1.18,-2.41,-217.53,-231.57,-238.53
1777398985475,1623775,0.18,0.83,-1.82,-237.18,-404.72,-325.20
1777398985485,1623785,-0.09,0.26,-0.69,-148.50,-474.18,-334.72
1777398985495,1623795,-0.47,-0.26,0.58,-90.58,-519.10,-304.50
1777398985505,1623805,-0.85,-0.77,1.66,-76.66,-528.02,-241.21
1777398985515,1623815,-1.08,-1.20,2.54,-38.45,-440.73,-150.02
1777398985525,1623825,-1.23,-1.50,3.15,15.44,-251.71,-32.10
1777398985535,1623835,-1.23,-1.73,3.25,80.38,-12.45,93.20
1777398985545,1623845,-1.12,-1.65,3.20,149.96,203.06,203.12
1777398985555,1623855,-1.20,-1.28,2.78,167.05,342.10,287.78
1777398985565,1623865,-0.95,-0.42,2.04,143.55,415.10,325.26
1777398985575,1623875,-0.63,0.36,0.83,128.23,461.06,220.76
1777398985595,1623895,0.50,1.40,-2.40,-117.98,150.63,-112.24
1777398985615,1623915,0.36,1.25,-3.01,-147.64,-268.19,-326.23
1777398985635,1623935,0.16,-0.06,-0.60,31.98,-451.72,-298.95
1777398985655,1623955,-0.41,-1.04,2.19,-23.32,-538.70,-247.07
1777398985665,1623965,-0.61,-1.49,2.91,-63.23,-480.59,-201.90
1777398985675,1623975,-0.47,-2.09,3.40,15.63,-300.35,-98.39
1777398985685,1623985,-0.58,-2.54,3.82,138.37,-38.64,55.11
1777398985695,1623995,-0.64,-2.50,3.93,202.09,198.85,205.75
1777398985705,1624005,-0.87,-1.98,3.60,218.75,358.52,326.84
1777398985715,1624015,-0.95,-1.00,3.00,228.58,465.76,410.58
1777398985725,1624025,-0.89,0.17,2.09,270.63,556.88,468.08
1777398985735,1624035,-0.66,1.01,1.04,376.71,642.03,498.54
1777398985745,1624045,0.01,0.83,-0.37,531.49,697.63,460.88
1777398985755,1624055,1.07,0.14,-1.88,621.95,670.96,323.73
1777398985765,1624065,1.92,-0.43,-3.20,493.90,485.23,108.52
1777398985775,1624075,2.00,-0.34,-3.48,138.00,163.33,-114.20
1777398985785,1624085,1.59,-0.07,-3.34,-254.82,-175.17,-265.01
1777398985795,1624095,0.96,0.36,-2.95,-451.05,-413.27,-326.90
1777398985805,1624105,0.42,0.47,-2.02,-440.73,-551.21,-314.27
1777398985815,1624115,0.07,0.15,-0.74,-352.60,-618.16,-279.85
1777398985825,1624125,-0.21,-0.34,0.73,-299.80,-652.65,-259.09
1777398985835,1624135,-0.42,-0.95,2.06,-315.73,-677.00,-258.36
1777398985845,1624145,-0.55,-1.41,3.06,-373.17,-671.08,-277.59
1777398985855,1624155,-0.56,-1.71,3.46,-443.97,-618.23,-303.65
1777398985865,1624165,-0.70,-1.68,3.13,-483.15,-515.44,-301.39
1777398985875,1624175,-0.65,-1.72,2.44,-415.28,-353.52,-232.60
1777398985885,1624185,-0.38,-1.90,2.16,-156.07,-93.51,-79.96
1777398985895,1624195,-0.35,-2.19,2.40,139.71,204.71,131.16
1777398985905,1624205,-0.62,-1.66,2.48,282.71,427.37,309.88
1777398985915,1624215,-0.91,-0.63,1.94,301.15,528.02,411.87
1777398985925,1624225,-1.09,0.51,1.32,339.23,640.93,473.82
1777398985945,1624245,-0.22,0.56,-0.04,706.54,777.65,380.19
1777398985965,1624265,1.50,0.00,-3.02,37.23,168.40,-21.06
1777398985985,1624285,0.05,0.83,-1.95,-436.22,-410.71,-291.14
1777398986005,1624305,-0.19,-0.20,-0.43,-231.87,-364.44,-226.75
1777398986015,1624315,-0.67,-0.54,0.83,-224.18,-378.42,-178.83
1777398986026,1624325,-1.09,-0.60,1.52,-296.75,-426.33,-172.97
1777398986035,1624335,-1.38,-0.53,2.01,-324.04,-419.56,-193.30
1777398986045,1624345,-1.49,-0.37,2.01,-271.12,-338.56,-193.24
1777398986055,1624355,-1.45,-0.42,1.84,-128.91,-188.11,-129.58
1777398986065,1624365,-1.11,-0.57,1.83,110.05,24.35,-5.86
1777398986075,1624375,-1.02,-0.80,2.07,332.95,238.71,146.61
1777398986085,1624385,-1.09,-0.68,1.97,437.81,370.30,266.42
1777398986095,1624395,-1.06,-0.29,1.55,476.93,414.98,323.12
1777398986105,1624405,-0.97,0.13,1.13,534.97,425.11,344.91
1777398986115,1624415,-0.84,0.30,0.67,619.63,429.57,357.54
1777398986125,1624425,-0.79,0.08,0.32,702.94,440.37,351.07
1777398986135,1624435,-0.28,-0.70,-0.07,732.73,437.26,305.42
1777398986145,1624445,0.23,-1.51,-0.47,605.22,393.31,206.05
1777398986155,1624455,0.24,-1.65,-0.61,226.32,249.76,46.69
1777398986165,1624465,0.13,-0.61,-0.61,-307.43,14.77,-134.95
1777398986175,1624475,-0.45,0.44,-0.79,-727.91,-209.84,-260.62
1777398986185,1624485,-0.68,1.04,-0.99,-821.11,-305.48,-311.95
1777398986195,1624495,-0.62,0.88,-0.81,-690.73,-292.11,-314.03
1777398986205,1624505,-0.71,0.37,-0.25,-573.24,-284.36,-287.48
1777398986215,1624515,-0.83,0.11,0.19,-539.12,-317.32,-272.16
1777398986225,1624525,-0.95,0.02,0.44,-527.40,-355.83,-267.21
1777398986235,1624535,-1.37,0.60,0.50,-440.67,-338.99,-247.62
1777398986245,1624545,-1.35,0.85,0.38,-233.46,-261.96,-186.89
1777398986255,1624555,-1.20,0.83,0.46,126.65,-86.06,-50.29
1777398986265,1624565,-1.21,0.47,0.79,479.00,138.73,291.56
1777398986285,1624585,-1.26,0.63,1.01,885.56,361.88,403.14
1777398986305,1624605,-0.96,0.95,0.02,956.60,239.07,349.55
1777398986325,1624625,-0.90,-0.56,0.15,815.73,176.21,174.62
1777398986345,1624645,-0.69,-1.02,0.87,-98.94,-23.01,-116.94
1777398986355,1624655,-0.43,-0.19,0.56,-632.14,-152.53,-182.56
1777398986365,1624665,-0.57,0.44,-0.10,-961.30,-258.54,-169.62
1777398986375,1624675,-0.78,0.80,-0.13,-1002.87,-307.86,-139.71
1777398986385,1624685,-1.12,0.99,0.24,-888.31,-324.65,-137.15
1777398986395,1624695,-1.21,0.87,0.63,-781.98,-350.89,-162.60
1777398986405,1624705,-1.23,0.76,0.76,-682.68,-357.30,-186.16
1777398986415,1624715,-1.30,0.89,0.62,-573.91,-329.35,-188.96
1777398986425,1624725,-1.43,1.30,0.38,-435.67,-279.24,-172.18
1777398986435,1624735,-1.28,1.48,-0.02,-176.45,-183.84,-127.44
1777398986445,1624745,-1.00,1.19,-0.08,204.77,-15.38,-44.86
1777398986455,1624755,-0.92,0.76,0.52,533.63,170.53,59.51
1777398986465,1624765,-0.92,0.48,0.89,686.04,274.60,143.68
1777398986475,1624775,-0.92,0.41,0.98,705.32,282.84,187.81
1777398986485,1624785,-0.96,0.03,0.85,656.62,228.64,191.16
1777398986495,1624795,-0.78,-0.37,0.79,533.51,155.64,159.24
1777398986505,1624805,-0.71,-0.52,0.77,281.37,74.40,111.51
1777398986515,1624815,-0.88,-0.27,0.86,-65.86,-24.17,54.20
1777398986525,1624825,-0.98,0.34,0.72,-391.54,-112.18,-3.23
1777398986535,1624835,-0.97,0.80,0.30,-567.87,-158.39,-36.50
1777398986545,1624845,-0.90,1.23,0.03,-537.72,-139.71,-48.10
1777398986555,1624855,-1.06,1.54,-0.20,-379.58,-87.89,-48.16
1777398986565,1624865,-1.01,1.44,-0.24,-166.14,-44.25,-43.27
1777398986575,1624875,-0.97,1.39,0.04,73.30,16.42,-29.91
1777398986585,1624885,-1.02,1.17,0.37,271.48,74.65,-3.54
1777398986595,1624895,-1.22,1.14,0.72,406.25,130.25,15.32
1777398986605,1624905,-1.31,1.10,0.97,475.95,183.53,9.64
1777398986615,1624915,-1.37,1.09,1.03,517.27,265.75,-64.76
1777398986635,1624935,-1.22,0.63,0.84,396.85,315.55,-192.44
1777398986655,1624955,0.42,-1.07,-0.95,201.35,234.37,-265.14
1777398986675,1624975,1.43,-1.56,-2.30,-80.81,-114.26,-249.21
1777398986685,1624985,1.42,-1.17,-2.27,-144.78,-323.55,-165.22
1777398986695,1624995,1.05,-0.74,-1.99,-116.88,-464.42,-38.15
1777398986705,1625005,0.68,-0.20,-1.50,-17.33,-487.43,106.51
1777398986715,1625015,0.19,0.37,-0.50,69.70,-416.81,232.73
1777398986725,1625025,-0.45,1.00,0.79,82.09,-328.49,273.74
1777398986735,1625035,-1.24,1.60,1.88,18.86,-288.51,216.31
1777398986745,1625045,-2.03,1.97,2.45,-68.54,-292.85,115.42
1777398986755,1625055,-2.67,2.18,2.82,-122.50,-269.23,16.72
1777398986765,1625065,-3.01,2.33,3.07,-109.86,-184.45,-66.22
1777398986775,1625075,-2.99,2.13,3.14,-53.47,-52.37,-122.80
1777398986785,1625085,-2.68,1.68,3.01,0.55,97.05,-155.03
1777398986795,1625095,-2.14,1.28,2.52,21.48,223.51,-181.52
1777398986805,1625105,-1.37,0.70,1.65,14.34,312.87,-214.23
1777398986815,1625115,-0.30,0.01,0.37,13.49,360.41,-247.13
1777398986825,1625125,0.71,-0.59,-0.96,3.54,341.13,-254.88
1777398986835,1625135,1.57,-1.09,-2.24,-41.20,240.54,-213.99
1777398986845,1625145,2.01,-1.45,-3.02,-78.06,91.43,-138.79
1777398986855,1625155,2.17,-1.42,-3.18,-85.33,-94.42,-37.41
1777398986865,1625165,1.66,-1.21,-2.52,-60.06,-272.77,82.28
1777398986875,1625175,1.04,-0.64,-1.59,-33.33,-370.73,170.72
1777398986885,1625185,0.13,0.03,-0.31,-4.64,-370.79,208.07
1777398986895,1625195,-0.74,0.68,0.94,11.96,-325.44,187.62
1777398986905,1625205,-1.53,1.15,1.93,2.99,-272.09,127.81
1777398986915,1625215,-2.23,1.43,2.65,-18.55,-213.99,58.11
1777398986925,1625225,-2.64,1.48,3.12,-21.85,-136.23,-6.23
1777398986935,1625235,-2.74,1.44,3.41,4.58,-19.96,-53.10
1777398986945,1625245,-2.67,1.30,3.35,23.68,106.38,-76.35
1777398986955,1625255,-2.30,1.24,2.90,20.08,210.51,-124.08
1777398986975,1625275,-0.97,0.36,0.83,15.26,379.46,-194.21
1777398986995,1625295,1.53,-1.61,-3.86,-79.28,102.91,-163.45
1777398987015,1625315,2.61,-1.42,-3.80,-95.46,-427.19,33.26
1777398987035,1625335,0.81,0.10,-1.04,30.70,-539.67,266.97
1777398987045,1625345,0.00,0.98,0.49,67.63,-447.33,253.78
1777398987055,1625355,-0.57,1.47,1.81,73.91,-399.48,195.74
1777398987065,1625365,-1.43,1.62,3.30,72.88,-377.81,143.92
1777398987075,1625375,-2.22,1.80,4.00,54.20,-328.61,88.13
1777398987085,1625385,-2.56,1.71,4.00,55.42,-205.69,41.26
1777398987095,1625395,-2.67,1.59,4.00,76.60,-27.10,6.23
1777398987105,1625405,-2.75,1.51,4.00,56.34,142.03,-24.23
1777398987115,1625415,-2.27,1.67,4.00,3.60,267.09,-67.32
1777398987125,1625425,-1.81,1.68,3.75,-17.76,376.04,-105.10
1777398987135,1625435,-1.08,1.20,2.09,6.59,473.57,-146.48
1777398987145,1625445,0.32,0.56,0.27,48.28,537.60,-212.40
1777398987155,1625455,1.80,-0.48,-1.61,61.65,522.40,-251.95
1777398987165,1625465,3.01,-1.51,-3.24,8.18,386.41,-250.79
1777398987175,1625475,3.41,-2.13,-4.00,-75.68,154.60,-204.16
1777398987185,1625485,3.22,-2.30,-4.00,-147.52,-98.08,-122.92
1777398987195,1625495,2.55,-1.54,-3.83,-170.23,-308.29,-7.45
1777398987205,1625505,1.55,-0.49,-2.76,-110.41,-406.43,115.66
1777398987215,1625515,0.71,0.44,-1.33,-4.82,-383.36,180.79
1777398987225,1625525,0.01,0.95,0.20,74.52,-327.21,183.90
1777398987235,1625535,-0.80,1.19,1.72,102.36,-314.51,164.67
1777398987245,1625545,-1.71,1.40,3.15,92.71,-321.96,135.44
1777398987255,1625555,-2.45,1.42,4.00,73.36,-288.09,98.63
1777398987265,1625565,-2.86,1.33,4.00,59.20,-185.79,60.55
1777398987275,1625575,-3.05,1.29,4.00,46.75,-43.33,26.67
1777398987285,1625585,-3.06,1.33,4.00,32.90,109.31,-1.95
1777398987295,1625595,-2.71,1.44,4.00,9.70,258.54,-33.26
1777398987306,1625605,-2.12,1.52,3.46,3.05,526.73,-121.95
1777398987325,1625625,1.09,0.04,-0.43,49.99,506.16,-223.75
1777398987345,1625645,3.58,-1.92,-4.00,-156.01,-28.26,-190.12
1777398987365,1625665,2.34,-0.63,-3.89,-93.02,-384.03,32.96
1777398987375,1625675,1.40,0.25,-2.18,-12.21,-412.23,133.36
1777398987385,1625685,0.55,1.03,-0.73,7.57,-441.10,158.69
1777398987395,1625695,-0.32,1.32,1.14,47.85,-449.04,144.78
1777398987405,1625705,-1.26,1.26,3.15,83.98,-442.26,116.76
1777398987415,1625715,-1.95,1.03,4.00,65.37,-425.54,77.51
1777398987425,1625725,-2.33,0.72,4.00,31.68,-355.59,36.01
1777398987435,1625735,-2.56,0.39,4.00,9.09,-220.76,9.28
1777398987445,1625745,-2.66,0.25,4.00,-10.86,-44.01,4.76
1777398987455,1625755,-2.49,0.30,4.00,-30.33,155.03,5.68
1777398987465,1625765,-1.94,0.79,4.00,-51.39,339.90,-10.44
1777398987475,1625775,-1.33,1.11,3.40,-58.78,494.20,-34.79
1777398987485,1625785,-0.35,1.26,1.42,-37.48,599.67,-64.58
1777398987495,1625795,0.99,0.88,-0.59,-10.50,635.38,-95.34
1777398987505,1625805,2.37,0.10,-2.91,-33.02,548.52,-136.23
1777398987515,1625815,3.04,-0.25,-4.00,-96.56,329.96,-171.51
1777398987525,1625825,3.04,-0.29,-4.00,-153.56,51.70,-163.51
1777398987535,1625835,2.48,0.11,-4.00,-126.77,-189.82,-114.32
1777398987545,1625845,1.85,0.30,-4.00,-3.66,-330.38,-42.66
1777398987555,1625855,1.32,0.28,-2.62,133.67,-376.65,32.71
1777398987565,1625865,0.77,0.34,-0.72,198.97,-377.62,84.72
1777398987575,1625875,0.22,0.40,1.04,185.55,-375.49,102.48
1777398987585,1625885,-0.44,0.45,2.73,165.22,-380.74,93.14
1777398987595,1625895,-1.04,0.32,4.00,132.20,-380.80,73.36
1777398987605,1625905,-1.64,0.09,4.00,79.77,-342.10,50.54
1777398987615,1625915,-2.06,-0.11,4.00,28.38,-248.96,30.27
1777398987625,1625925,-2.26,-0.13,4.00,-21.18,-112.79,19.59
1777398987635,1625935,-2.24,-0.06,4.00,-62.93,54.50,18.25
1777398987645,1625945,-1.94,0.36,4.00,-87.34,236.51,3.36
1777398987665,1625965,-0.66,1.05,1.72,-51.27,578.92,-31.01
1777398987685,1625985,1.64,0.45,-4.00,-93.93,336.79,-104.86
1777398987705,1626005,2.27,0.35,-4.00,-85.21,-84.90,-85.82
1777398987725,1626025,1.18,0.45,-2.82,88.38,-319.95,15.69
1777398987735,1626035,0.60,0.41,-1.10,145.87,-347.47,63.11
1777398987745,1626045,-0.05,0.45,0.68,150.02,-351.93,86.61
1777398987755,1626055,-0.79,0.42,2.53,136.23,-362.06,82.82
1777398987765,1626065,-1.45,0.35,3.99,99.37,-364.69,57.86
1777398987775,1626075,-1.96,0.07,4.00,60.49,-322.75,26.86
1777398987785,1626085,-2.31,-0.30,4.00,34.12,-217.16,4.88
1777398987795,1626095,-2.45,-0.43,4.00,-12.27,-75.13,-2.99
1777398987805,1626105,-2.44,-0.24,4.00,-78.00,77.33,-3.11
1777398987815,1626115,-2.06,0.33,4.00,-122.62,241.52,-8.24
1777398987825,1626125,-1.51,0.84,3.59,-125.00,404.17,-6.77
1777398987835,1626135,-0.62,1.12,1.67,-95.76,532.23,-5.31
1777398987845,1626145,0.57,1.04,-0.43,-77.15,580.51,-17.52
1777398987855,1626155,1.95,0.72,-2.97,-92.77,513.85,-63.17
1777398987865,1626165,2.67,0.60,-4.00,-124.51,321.84,-112.98
1777398987875,1626175,2.67,0.49,-4.00,-138.00,65.37,-124.39
1777398987885,1626185,2.32,0.67,-4.00,-85.94,-145.39,-100.10
1777398987895,1626195,1.89,0.64,-4.00,31.01,-266.78,-51.88
1777398987905,1626205,1.36,0.44,-2.81,151.18,-331.67,5.37
1777398987915,1626215,0.60,0.28,-0.68,196.35,-360.29,45.17
1777398987925,1626225,-0.11,0.32,1.28,163.15,-371.70,60.00
1777398987935,1626235,-0.84,0.23,3.24,135.13,-385.86,54.57
1777398987945,1626245,-1.60,-0.15,4.00,98.57,-387.02,34.18
1777398987955,1626255,-2.26,-0.53,4.00,33.81,-345.28,-1.71
1777398987965,1626265,-2.54,-0.74,4.00,-39.43,-237.43,-30.15
1777398987975,1626275,-2.50,-0.76,4.00,-91.98,-66.28,-27.47
1777398987985,1626285,-2.22,-0.41,4.00,-129.09,152.83,-5.98
1777398987995,1626295,-1.68,0.45,4.00,-137.15,561.28,32.71
1777398988015,1626315,-0.15,1.72,1.52,-42.24,694.58,0.12
1777398988035,1626335,3.45,0.47,-4.00,-103.09,337.83,-146.06
1777398988055,1626355,3.07,0.39,-4.00,-112.43,-190.12,-149.41
1777398988065,1626365,2.60,0.53,-4.00,7.63,-318.12,-84.84
1777398988076,1626375,2.18,0.56,-3.50,146.79,-382.51,-8.97
1777398988085,1626385,1.77,0.60,-1.63,227.42,-422.73,47.30
1777398988095,1626395,1.17,0.69,0.26,216.43,-443.05,85.88
1777398988105,1626405,0.45,0.70,2.21,198.67,-460.02,97.96
1777398988115,1626415,-0.42,0.41,4.00,179.38,-472.90,80.75
1777398988125,1626425,-1.27,-0.06,4.00,127.50,-453.00,40.28
1777398988135,1626435,-1.84,-0.48,4.00,59.69,-378.78,3.23
1777398988145,1626445,-2.04,-0.92,4.00,15.81,-229.68,-0.31
1777398988155,1626455,-2.19,-1.14,4.00,-3.48,-25.21,30.21
1777398988165,1626465,-2.11,-0.74,4.00,-38.64,185.18,61.10
1777398988175,1626475,-1.78,0.03,4.00,-73.12,370.85,77.21
1777398988185,1626485,-1.11,0.74,3.43,-78.06,529.36,80.02
1777398988195,1626495,-0.11,1.24,1.44,-67.44,629.58,64.51
1777398988205,1626505,1.12,1.27,-0.80,-73.24,623.05,29.79
1777398988215,1626515,2.23,1.02,-3.28,-90.45,505.00,-27.95
1777398988225,1626525,2.71,0.81,-4.00,-131.53,288.76,-85.75
1777398988235,1626535,2.58,0.81,-4.00,-159.18,31.07,-109.44
1777398988245,1626545,2.21,1.01,-4.00,-106.32,-179.14,-98.14
1777398988255,1626555,1.75,0.95,-4.00,15.75,-307.19,-58.17
1777398988265,1626565,1.32,0.89,-2.79,128.48,-378.78,-17.82
1777398988275,1626575,0.68,0.71,-0.83,168.64,-424.80,13.43
1777398988285,1626585,-0.11,0.62,1.46,147.28,-451.17,29.85
1777398988295,1626595,-0.90,0.45,3.67,111.76,-472.47,11.47
1777398988305,1626605,-1.50,-0.02,4.00,72.45,-460.39,-27.83
1777398988315,1626615,-1.74,-0.65,4.00,31.86,-369.14,-52.49
1777398988325,1626625,-1.82,-1.14,4.00,3.11,-197.57,-34.42
1777398988335,1626635,-1.84,-1.30,4.00,-6.29,11.35,52.55
1777398988355,1626655,-1.44,-0.41,4.00,-58.90,543.27,91.25
1777398988375,1626675,-0.13,0.80,-0.45,-8.67,676.88,66.96
1777398988395,1626695,2.90,0.72,-4.00,-132.93,324.52,-107.91
1777398988415,1626715,2.34,1.14,-4.00,-136.54,-208.50,-127.87
