host_time_ms,arduino_time_ms,ax,ay,az,gx,gy,gz
1777398928422,1554222,-0.93,-1.17,0.01,-381.65,160.22,104.92
1777398928423,1554232,-0.87,-0.92,0.12,-215.27,108.22,74.83
1777398928423,1554242,-0.87,-0.65,0.13,-51.39,52.49,44.25
1777398928423,1554252,-0.79,-0.60,0.05,97.17,-2.08,20.81
1777398928423,1554262,-0.72,-0.64,-0.13,233.03,-54.44,-6.84
1777398928424,1554272,-0.74,-0.75,-0.35,356.51,-92.65,-38.57
1777398928424,1554282,-0.76,-0.86,-0.51,469.30,-110.90,-69.46
1777398928424,1554292,-0.85,-1.04,-0.59,574.40,-123.66,-97.66
1777398928425,1554302,-0.91,-1.27,-0.68,668.58,-136.17,-119.08
1777398928425,1554312,-1.00,-1.43,-0.85,754.03,-153.56,-125.31
1777398928425,1554332,-1.12,-1.26,-1.21,849.91,-165.71,-71.23
1777398928425,1554352,-0.65,0.18,-1.21,649.29,-109.01,-12.45
1777398928426,1554372,-0.63,1.12,-0.80,231.02,-83.13,14.71
1777398928426,1554392,-0.62,0.59,-0.67,-338.07,-46.69,42.05
1777398928426,1554402,-0.57,-0.02,-0.54,-571.66,4.15,57.19
1777398928426,1554412,-0.66,-0.52,-0.51,-725.34,50.54,70.01
1777398928427,1554422,-0.79,-0.90,-0.59,-802.55,83.92,83.19
1777398928427,1554432,-0.86,-1.16,-0.59,-815.19,107.06,98.33
1777398928427,1554442,-0.88,-1.32,-0.79,-780.03,120.36,113.59
1777398928427,1554452,-0.93,-1.42,-0.78,-733.76,142.82,124.39
1777398928428,1554462,-1.03,-1.39,-0.54,-681.82,164.79,125.61
1777398928428,1554472,-1.02,-1.34,-0.30,-613.95,173.22,125.67
1777398928429,1554482,-0.99,-1.25,-0.16,-514.40,164.12,120.36
1777398928429,1554492,-0.99,-1.15,-0.03,-386.72,146.18,107.42
1777398928429,1554502,-0.98,-1.00,0.12,-239.81,118.35,85.14
1777398928429,1554512,-0.94,-0.92,0.16,-73.79,72.88,55.60
1777398928430,1554522,-0.89,-0.80,0.03,96.92,13.55,20.32
1777398928430,1554532,-0.79,-0.68,-0.23,252.26,-45.72,-17.21
1777398928430,1554542,-0.82,-0.57,-0.44,378.78,-92.71,-56.34
1777398928430,1554552,-0.84,-0.64,-0.56,467.65,-120.00,-87.10
1777398928431,1554562,-0.88,-0.73,-0.62,525.57,-131.41,-108.70
1777398928431,1554572,-0.93,-0.86,-0.62,568.85,-136.54,-120.54
1777398928431,1554582,-1.00,-0.99,-0.61,604.98,-140.44,-123.17
1777398928432,1554592,-1.08,-1.13,-0.64,629.82,-143.37,-115.72
1777398928432,1554602,-1.07,-1.18,-0.71,647.40,-141.72,-97.05
1777398928432,1554612,-1.01,-1.12,-0.77,657.53,-134.34,-72.14
1777398928432,1554622,-0.97,-0.97,-0.70,646.85,-118.65,-46.20
1777398928433,1554632,-0.84,-0.71,-0.65,612.00,-100.83,-20.08
1777398928433,1554642,-0.77,-0.44,-0.53,557.43,-89.42,-1.16
1777398928433,1554652,-0.75,-0.17,-0.49,484.68,-82.28,28.81
1777398928433,1554672,-0.71,0.11,-0.25,196.35,-70.98,38.39
1777398928434,1554692,-0.64,0.06,0.09,23.25,-65.80,35.03
1777398928434,1554712,-0.67,-0.32,0.35,-91.80,-44.49,28.63
1777398928434,1554732,-0.66,-0.63,0.52,-91.19,-34.61,25.33
1777398928434,1554742,-0.64,-0.64,0.52,-51.88,-38.94,20.02
1777398928435,1554752,-0.65,-0.56,0.52,-12.63,-41.14,13.18
1777398928435,1554762,-0.68,-0.45,0.49,14.65,-41.87,7.39
1777398928435,1554772,-0.70,-0.36,0.44,28.32,-43.09,5.62
1777398928435,1554782,-0.69,-0.31,0.38,30.15,-43.95,6.77
1777398928435,1554792,-0.68,-0.28,0.34,22.22,-42.54,8.18
1777398928436,1554802,-0.69,-0.29,0.32,7.57,-40.28,8.97
1777398928436,1554812,-0.70,-0.35,0.32,-9.95,-37.48,9.58
1777398928436,1554822,-0.72,-0.41,0.36,-23.68,-34.48,10.44
1777398928436,1554832,-0.72,-0.44,0.38,-28.87,-33.45,10.80
1777398928436,1554842,-0.71,-0.46,0.41,-28.50,-33.26,10.86
1777398928437,1554852,-0.70,-0.43,0.41,-25.39,-34.00,9.46
1777398928437,1554862,-0.74,-0.41,0.45,-23.25,-34.00,7.93
1777398928437,1554872,-0.71,-0.38,0.44,-21.97,-35.46,8.91
1777398928437,1554882,-0.71,-0.35,0.41,-23.44,-36.62,10.19
1777398928437,1554892,-0.72,-0.34,0.39,-27.83,-36.87,10.80
1777398928438,1554902,-0.73,-0.35,0.37,-33.81,-40.53,11.72
1777398928438,1554912,-0.73,-0.40,0.38,-39.37,-47.67,13.12
1777398928438,1554922,-0.71,-0.46,0.42,-40.04,-57.13,13.98
1777398928438,1554932,-0.69,-0.51,0.47,-34.85,-65.80,13.31
1777398928438,1554942,-0.69,-0.55,0.51,-26.73,-72.02,11.29
1777398928439,1554952,-0.69,-0.57,0.55,-16.42,-75.38,8.61
1777398928439,1554962,-0.68,-0.56,0.61,-3.91,-78.86,4.94
1777398928439,1554972,-0.68,-0.50,0.63,7.14,-83.50,0.61
1777398928439,1554982,-0.68,-0.45,0.60,12.57,-87.22,-2.44
1777398928439,1554992,-0.70,-0.43,0.60,10.50,-88.07,-3.85
1777398928440,1555002,-0.69,-0.49,0.59,5.07,-89.48,-8.00
1777398928440,1555022,-0.66,-0.67,0.75,10.13,-92.22,-11.66
1777398928440,1555042,-0.80,-0.78,0.99,71.11,-58.59,19.04
1777398928440,1555062,-0.55,-0.55,0.84,27.89,-45.78,28.50
1777398928440,1555082,-0.58,-0.42,0.73,11.47,-23.80,24.05
1777398928441,1555092,-0.55,-0.32,0.68,20.45,-22.58,23.74
1777398928441,1555102,-0.53,-0.28,0.63,22.28,-23.93,24.54
1777398928441,1555112,-0.51,-0.25,0.58,13.24,-25.21,23.07
1777398928441,1555122,-0.50,-0.25,0.55,-3.36,-27.22,19.65
1777398928441,1555132,-0.50,-0.28,0.58,-18.62,-28.32,15.44
1777398928442,1555142,-0.50,-0.33,0.62,-28.38,-29.11,10.80
1777398928442,1555152,-0.51,-0.37,0.68,-31.92,-29.91,6.65
1777398928442,1555162,-0.54,-0.40,0.75,-29.85,-30.70,3.30
1777398928442,1555172,-0.52,-0.44,0.77,-22.64,-33.51,0.06
1777398928442,1555182,-0.53,-0.45,0.82,-14.10,-35.58,-3.48
1777398928443,1555192,-0.54,-0.46,0.87,-6.04,-36.38,-6.04
1777398928443,1555202,-0.55,-0.46,0.89,2.62,-36.44,-6.71
1777398928443,1555212,-0.54,-0.44,0.90,13.12,-35.28,-6.29
1777398928443,1555222,-0.54,-0.40,0.90,20.81,-33.63,-6.04
1777398928443,1555232,-0.56,-0.36,0.89,22.16,-30.94,-6.16
1777398928444,1555242,-0.56,-0.35,0.86,18.74,-27.77,-4.70
1777398928444,1555252,-0.54,-0.36,0.83,15.38,-24.23,-1.71
1777398928444,1555262,-0.54,-0.35,0.80,11.29,-18.92,0.49
1777398928444,1555272,-0.53,-0.32,0.78,4.94,-11.96,1.22
1777398928444,1555282,-0.53,-0.32,0.77,-3.17,-5.74,0.98
1777398928444,1555292,-0.54,-0.36,0.76,-7.75,-1.95,0.61
1777398928445,1555302,-0.54,-0.37,0.74,-9.03,0.49,-0.12
1777398928445,1555312,-0.55,-0.38,0.75,-10.07,3.97,-0.92
1777398928445,1555322,-0.56,-0.39,0.75,-10.13,7.75,-2.08
1777398928445,1555332,-0.57,-0.41,0.73,-7.02,9.09,-4.09
1777398928445,1555342,-0.57,-0.41,0.71,-0.24,7.39,-6.10
1777398928445,1555362,-0.57,-0.38,0.68,5.37,7.57,-10.74
1777398928446,1555382,-0.61,-0.41,0.64,-2.50,9.58,-9.16
1777398928446,1555402,-0.60,-0.43,0.63,3.11,-0.12,-6.71
1777398928446,1555422,-0.58,-0.38,0.65,1.16,-3.11,-6.53
1777398928446,1555432,-0.59,-0.38,0.67,-4.21,-1.34,-7.08
1777398928446,1555442,-0.59,-0.41,0.69,-7.20,0.73,-6.65
1777398928446,1555452,-0.59,-0.43,0.70,-5.92,0.98,-6.71
1777398928447,1555462,-0.58,-0.43,0.70,-1.65,-0.43,-7.81
1777398928447,1555472,-0.58,-0.42,0.70,2.20,-1.04,-9.03
1777398928447,1555482,-0.59,-0.41,0.70,3.54,-0.24,-9.28
1777398928447,1555492,-0.59,-0.41,0.70,3.30,1.34,-8.67
1777398928447,1555502,-0.58,-0.41,0.69,3.78,1.46,-8.12
1777398928447,1555512,-0.59,-0.40,0.69,4.70,0.24,-8.06
1777398928448,1555522,-0.59,-0.40,0.69,5.07,-1.16,-7.45
1777398928448,1555532,-0.58,-0.39,0.69,4.03,-1.83,-6.96
1777398928448,1555542,-0.57,-0.39,0.68,2.08,-1.16,-6.53
1777398928448,1555552,-0.58,-0.40,0.69,-0.49,0.18,-6.84
1777398928448,1555562,-0.59,-0.42,0.69,-2.93,1.65,-7.39
1777398928448,1555572,-0.60,-0.43,0.69,-3.05,2.87,-7.45
1777398928449,1555582,-0.60,-0.44,0.68,-0.43,2.81,-7.14
1777398928449,1555592,-0.60,-0.44,0.67,2.62,1.65,-6.96
1777398928449,1555602,-0.60,-0.43,0.66,4.46,0.24,-7.02
1777398928449,1555612,-0.60,-0.42,0.65,5.00,-1.10,-6.65
1777398928449,1555622,-0.59,-0.41,0.65,4.15,-1.59,-6.10
1777398928449,1555632,-0.59,-0.41,0.66,1.34,-1.34,-5.68
1777398928450,1555642,-0.60,-0.42,0.67,-1.71,-1.04,-5.00
1777398928450,1555652,-0.59,-0.43,0.68,-2.26,-1.34,-4.64
1777398928450,1555662,-0.58,-0.43,0.68,-0.55,-1.65,-5.25
1777398928450,1555672,-0.59,-0.42,0.68,1.40,-1.77,-6.16
1777398928450,1555682,-0.60,-0.43,0.68,2.20,-1.53,-6.59
1777398928450,1555692,-0.60,-0.43,0.67,3.30,-2.01,-5.43
1777398928451,1555712,-0.59,-0.41,0.66,3.36,-2.69,-4.82
1777398928451,1555732,-0.60,-0.43,0.67,-1.10,-2.01,-3.97
1777398928451,1555752,-0.59,-0.42,0.68,3.78,-3.54,-4.09
1777398928451,1555772,-0.59,-0.39,0.67,4.33,-3.91,-5.98
1777398928451,1555782,-0.59,-0.40,0.67,2.08,-3.30,-6.23
1777398928451,1555792,-0.59,-0.41,0.68,0.55,-2.26,-5.80
1777398928452,1555802,-0.59,-0.42,0.68,-0.43,-1.53,-5.62
1777398928452,1555812,-0.60,-0.43,0.68,0.12,-1.71,-5.49
1777398928452,1555822,-0.59,-0.43,0.67,1.65,-2.08,-5.43
1777398928452,1555832,-0.60,-0.42,0.67,2.56,-2.01,-5.43
1777398928452,1555842,-0.60,-0.42,0.66,2.75,-1.95,-5.19
1777398928452,1555852,-0.60,-0.42,0.66,2.56,-2.56,-4.82
1777398928452,1555862,-0.60,-0.43,0.66,2.38,-3.17,-4.70
1777398928453,1555872,-0.60,-0.43,0.67,2.20,-3.17,-4.52
1777398928453,1555882,-0.60,-0.43,0.67,2.56,-3.36,-4.88
1777398928453,1555892,-0.60,-0.44,0.68,4.46,-4.27,-5.07
1777398928453,1555902,-0.60,-0.43,0.67,7.08,-5.25,-4.82
1777398928453,1555912,-0.59,-0.41,0.67,7.63,-5.07,-5.19
1777398928453,1555922,-0.60,-0.40,0.66,5.92,-4.15,-5.55
1777398928454,1555932,-0.62,-0.41,0.65,3.23,-3.85,-4.94
1777398928454,1555942,-0.61,-0.43,0.65,0.85,-4.46,-3.48
1777398928454,1555952,-0.60,-0.43,0.66,0.98,-5.19,-2.56
1777398928454,1555962,-0.59,-0.42,0.67,2.69,-5.80,-2.81
1777398928454,1555972,-0.59,-0.41,0.67,2.56,-5.49,-3.85
1777398928454,1555982,-0.59,-0.40,0.68,0.61,-4.46,-4.82
1777398928454,1555992,-0.59,-0.41,0.68,-0.85,-3.23,-4.76
1777398928455,1556002,-0.59,-0.41,0.68,-1.40,-2.38,-4.27
1777398928455,1556012,-0.60,-0.42,0.68,-1.46,-2.56,-4.15
1777398928455,1556022,-0.59,-0.42,0.68,-1.10,-2.99,-4.15
1777398928455,1556032,-0.58,-0.41,0.68,-0.43,-2.62,-4.21
1777398928455,1556052,-0.59,-0.39,0.68,-7.69,1.22,-4.76
1777398928455,1556072,-0.61,-0.45,0.68,-2.38,-0.55,-3.78
1777398928456,1556092,-0.60,-0.43,0.65,10.93,-4.82,-5.31
1777398928456,1556112,-0.61,-0.42,0.64,12.88,-6.77,-7.39
1777398928456,1556122,-0.61,-0.42,0.64,11.60,-7.26,-6.96
1777398928456,1556132,-0.61,-0.43,0.65,9.77,-7.93,-6.10
1777398928456,1556142,-0.61,-0.44,0.65,8.06,-8.91,-5.49
1777398928456,1556152,-0.61,-0.44,0.66,7.75,-9.46,-4.64
1777398928457,1556162,-0.60,-0.43,0.68,9.09,-9.70,-4.09
1777398928457,1556172,-0.59,-0.42,0.67,11.84,-9.95,-4.46
1777398928457,1556182,-0.59,-0.40,0.68,14.10,-10.13,-5.37
1777398928457,1556192,-0.59,-0.40,0.67,14.34,-9.77,-6.04
1777398928457,1556202,-0.59,-0.40,0.68,13.31,-9.22,-6.04
1777398928457,1556212,-0.59,-0.40,0.67,12.45,-9.09,-5.55
1777398928457,1556222,-0.59,-0.40,0.68,10.68,-8.73,-5.19
1777398928458,1556232,-0.59,-0.40,0.69,7.57,-7.93,-4.94
1777398928458,1556242,-0.59,-0.39,0.70,4.15,-6.47,-5.00
1777398928458,1556252,-0.59,-0.40,0.70,1.04,-4.21,-4.76
1777398928458,1556262,-0.58,-0.41,0.70,0.37,-3.54,-4.27
1777398928458,1556272,-0.58,-0.41,0.70,1.53,-3.60,-4.64
1777398928458,1556282,-0.58,-0.40,0.69,2.38,-3.17,-5.25
1777398928458,1556292,-0.58,-0.39,0.68,1.40,-2.01,-5.86
1777398928459,1556302,-0.59,-0.39,0.67,-1.10,-0.67,-6.10
1777398928459,1556312,-0.61,-0.40,0.68,-3.91,0.49,-5.68
1777398928459,1556322,-0.61,-0.43,0.68,-4.88,0.43,-4.76
1777398928459,1556332,-0.60,-0.43,0.68,-2.75,-0.73,-4.39
1777398928459,1556342,-0.59,-0.42,0.68,0.98,-1.95,-4.27
1777398928459,1556352,-0.59,-0.40,0.67,2.75,-2.26,-4.64
1777398928459,1556362,-0.59,-0.39,0.67,1.46,-1.65,-5.31
1777398928460,1556372,-0.60,-0.41,0.66,-1.10,-1.28,-5.37
1777398928460,1556382,-0.61,-0.43,0.67,-2.38,-1.34,-4.27
1777398928460,1556402,-0.59,-0.42,0.67,8.30,-5.49,-6.35
1777398928460,1556422,-0.60,-0.41,0.66,5.55,-5.74,-6.23
1777398928460,1556442,-0.60,-0.42,0.67,2.14,-5.49,-4.39
1777398928460,1556462,-0.61,-0.42,0.68,0.98,-4.94,-3.48
1777398928461,1556472,-0.60,-0.41,0.68,2.93,-5.25,-3.72
1777398928461,1556482,-0.59,-0.41,0.68,5.00,-5.62,-4.52
1777398928461,1556492,-0.59,-0.40,0.68,5.49,-5.43,-4.82
1777398928461,1556502,-0.60,-0.40,0.68,4.52,-4.94,-4.76
1777398928461,1556512,-0.60,-0.40,0.68,2.75,-4.52,-4.58
1777398928461,1556522,-0.59,-0.41,0.68,1.10,-4.39,-4.21
1777398928462,1556532,-0.59,-0.41,0.69,-0.18,-3.97,-3.97
1777398928462,1556542,-0.59,-0.42,0.69,-0.73,-2.99,-4.15
1777398928462,1556552,-0.59,-0.41,0.69,0.49,-2.44,-4.58
1777398928462,1556562,-0.59,-0.41,0.68,2.50,-2.38,-5.31
1777398928462,1556572,-0.60,-0.41,0.67,3.97,-2.87,-5.68
1777398928462,1556582,-0.60,-0.41,0.66,4.58,-3.30,-5.49
1777398928462,1556592,-0.60,-0.41,0.66,4.52,-3.72,-5.55
1777398928463,1556602,-0.60,-0.41,0.66,3.72,-3.85,-5.55
1777398928463,1556612,-0.61,-0.42,0.67,2.44,-3.72,-5.13
1777398928463,1556622,-0.61,-0.43,0.67,1.95,-3.72,-4.64
1777398928463,1556632,-0.60,-0.43,0.67,2.81,-4.09,-4.21
1777398928463,1556642,-0.60,-0.42,0.67,3.78,-4.33,-3.97
1777398928463,1556652,-0.60,-0.41,0.67,3.54,-4.39,-4.15
1777398928463,1556662,-0.60,-0.41,0.67,2.99,-4.52,-4.15
1777398928464,1556672,-0.59,-0.42,0.67,3.66,-5.00,-3.97
1777398928464,1556682,-0.59,-0.41,0.68,4.46,-5.37,-4.27
1777398928464,1556692,-0.59,-0.41,0.68,4.15,-4.94,-4.58
1777398928464,1556702,-0.60,-0.41,0.68,3.30,-4.15,-4.58
1777398928464,1556712,-0.60,-0.42,0.68,3.60,-4.21,-4.58
1777398928464,1556722,-0.60,-0.41,0.67,4.58,-4.64,-4.58
1777398928464,1556742,-0.60,-0.40,0.67,0.49,-2.62,-5.19
1777398928465,1556762,-0.61,-0.42,0.68,2.62,-3.48,-4.15
1777398928465,1556782,-0.60,-0.40,0.67,6.04,-4.94,-4.94
1777398928465,1556802,-0.60,-0.40,0.67,3.54,-5.00,-4.76
1777398928465,1556812,-0.59,-0.41,0.67,2.08,-4.88,-4.33
1777398928465,1556822,-0.59,-0.41,0.68,1.22,-4.70,-4.21
1777398928465,1556832,-0.59,-0.41,0.68,1.16,-4.39,-4.33
1777398928465,1556842,-0.59,-0.41,0.68,1.40,-4.03,-4.52
1777398928466,1556852,-0.59,-0.41,0.68,1.53,-3.54,-4.46
1777398928466,1556862,-0.60,-0.41,0.68,1.53,-3.11,-4.94
1777398928466,1556872,-0.60,-0.41,0.67,1.71,-3.11,-5.25
1777398928466,1556882,-0.60,-0.41,0.67,2.01,-3.11,-4.94
1777398928466,1556892,-0.60,-0.41,0.67,2.14,-2.99,-4.52
1777398928466,1556902,-0.60,-0.41,0.67,2.32,-3.17,-4.76
1777398928466,1556912,-0.61,-0.41,0.67,2.75,-3.66,-4.82
1777398928467,1556922,-0.61,-0.41,0.68,2.99,-3.91,-4.94
1777398928467,1556932,-0.61,-0.41,0.67,3.23,-4.27,-5.00
1777398928467,1556942,-0.60,-0.41,0.67,3.78,-4.70,-4.64
1777398928467,1556952,-0.60,-0.41,0.67,3.91,-5.00,-4.33
1777398928467,1556962,-0.60,-0.40,0.67,2.93,-4.88,-4.52
1777398928467,1556972,-0.59,-0.41,0.67,1.71,-4.21,-4.58
1777398928467,1556982,-0.59,-0.41,0.68,1.04,-3.66,-4.76
1777398928468,1556992,-0.59,-0.41,0.67,0.92,-3.42,-5.00
1777398928468,1557002,-0.60,-0.41,0.67,0.61,-3.23,-5.07
1777398928468,1557012,-0.60,-0.41,0.67,0.18,-2.81,-5.13
1777398928468,1557022,-0.60,-0.41,0.68,0.55,-2.38,-4.70
1777398928468,1557032,-0.60,-0.41,0.67,0.43,-2.32,-4.64
1777398928468,1557042,-0.60,-0.42,0.67,-0.24,-1.77,-5.07
1777398928468,1557052,-0.60,-0.42,0.67,-0.37,-1.59,-5.68
1777398928468,1557062,-0.61,-0.42,0.67,0.92,-2.26,-5.25
1777398928469,1557072,-0.61,-0.42,0.67,2.32,-2.75,-4.76
1777398928469,1557092,-0.60,-0.41,0.66,4.39,-4.52,-5.13
1777398928469,1557112,-0.60,-0.41,0.67,3.17,-4.88,-5.13
1777398928469,1557132,-0.60,-0.42,0.67,1.46,-4.09,-5.37
1777398928469,1557152,-0.60,-0.43,0.67,2.26,-4.33,-4.58
1777398928469,1557162,-0.60,-0.42,0.67,3.11,-4.33,-4.27
1777398928469,1557172,-0.60,-0.41,0.67,2.75,-4.03,-4.64
1777398928470,1557182,-0.60,-0.41,0.67,1.95,-3.66,-4.76
1777398928470,1557192,-0.61,-0.41,0.67,1.22,-3.48,-4.70
1777398928470,1557202,-0.61,-0.42,0.68,1.16,-3.36,-4.76
1777398928470,1557212,-0.60,-0.42,0.68,2.32,-3.78,-4.76
1777398928470,1557222,-0.60,-0.41,0.67,4.39,-4.58,-4.82
1777398928470,1557232,-0.60,-0.41,0.67,5.19,-4.82,-5.31
1777398928470,1557242,-0.60,-0.40,0.67,3.85,-4.27,-5.92
1777398928471,1557252,-0.60,-0.41,0.67,1.89,-3.42,-5.37
1777398928471,1557262,-0.60,-0.41,0.67,0.73,-3.05,-4.58
1777398928471,1557272,-0.61,-0.42,0.67,0.49,-2.93,-4.82
1777398928471,1557282,-0.60,-0.42,0.67,1.65,-3.17,-5.49
1777398928471,1557292,-0.60,-0.42,0.67,4.09,-3.78,-5.80
1777398928471,1557302,-0.60,-0.42,0.67,5.74,-4.21,-5.98
1777398928471,1557312,-0.60,-0.40,0.65,5.80,-4.88,-6.35
1777398928471,1557322,-0.61,-0.40,0.66,3.91,-4.27,-6.16
1777398928472,1557332,-0.60,-0.42,0.67,1.83,-3.85,-4.88
1777398928472,1557342,-0.60,-0.43,0.67,0.61,-3.66,-4.15
1777398928472,1557352,-0.60,-0.44,0.67,1.46,-3.54,-4.21
1777398928472,1557362,-0.60,-0.43,0.67,3.78,-4.52,-5.00
1777398928472,1557372,-0.60,-0.41,0.66,5.31,-5.19,-5.37
1777398928472,1557382,-0.60,-0.40,0.66,5.13,-5.00,-5.07
1777398928472,1557392,-0.61,-0.40,0.66,3.48,-4.39,-4.76
1777398928473,1557402,-0.61,-0.41,0.66,1.59,-3.85,-4.52
1777398928473,1557412,-0.61,-0.42,0.67,0.49,-3.72,-4.15
1777398928473,1557432,-0.60,-0.42,0.67,4.09,-4.88,-4.21
1777398928473,1557452,-0.60,-0.40,0.67,4.15,-5.13,-5.13
1777398928473,1557472,-0.60,-0.41,0.66,1.40,-4.52,-5.37
1777398928473,1557492,-0.60,-0.42,0.67,1.16,-4.88,-4.70
1777398928473,1557502,-0.60,-0.42,0.67,1.95,-5.25,-4.94
1777398928473,1557512,-0.60,-0.42,0.67,2.14,-5.00,-5.31
1777398928474,1557522,-0.60,-0.41,0.68,1.95,-4.39,-5.25
1777398928474,1557532,-0.60,-0.42,0.67,2.01,-3.91,-5.13
1777398928474,1557542,-0.60,-0.41,0.67,2.20,-3.85,-5.07
1777398928474,1557552,-0.60,-0.41,0.67,2.08,-3.85,-5.07
1777398928474,1557562,-0.60,-0.41,0.67,1.89,-3.91,-5.19
1777398928474,1557572,-0.60,-0.41,0.67,2.32,-4.27,-5.13
1777398928474,1557582,-0.60,-0.41,0.67,2.93,-4.70,-5.00
1777398928474,1557592,-0.60,-0.41,0.67,2.62,-4.82,-5.13
1777398928475,1557602,-0.61,-0.42,0.67,1.89,-4.52,-5.13
1777398928475,1557612,-0.61,-0.42,0.67,1.95,-4.27,-5.07
1777398928475,1557622,-0.61,-0.42,0.67,2.56,-4.39,-5.00
1777398928475,1557632,-0.60,-0.42,0.67,2.62,-4.58,-5.07
1777398928475,1557642,-0.60,-0.42,0.67,2.20,-4.39,-5.19
1777398928475,1557652,-0.60,-0.42,0.66,2.20,-4.33,-5.19
1777398928475,1557662,-0.60,-0.42,0.67,2.50,-4.39,-5.00
1777398928476,1557672,-0.60,-0.42,0.67,2.32,-4.46,-4.76
1777398928476,1557682,-0.60,-0.42,0.67,2.44,-4.33,-4.27
1777398928476,1557692,-0.60,-0.41,0.67,2.75,-4.46,-3.85
1777398928476,1557702,-0.60,-0.41,0.67,2.69,-4.46,-4.27
1777398928476,1557712,-0.60,-0.41,0.67,2.38,-4.52,-4.88
1777398928476,1557722,-0.60,-0.42,0.67,2.81,-4.70,-4.82
1777398928476,1557732,-0.60,-0.41,0.67,3.60,-4.88,-5.00
1777398928476,1557742,-0.60,-0.41,0.67,3.97,-4.94,-5.00
1777398928476,1557752,-0.61,-0.41,0.66,3.60,-4.88,-4.58
1777398928477,1557762,-0.60,-0.41,0.67,2.62,-4.64,-4.76
1777398928477,1557782,-0.60,-0.41,0.67,2.08,-4.70,-4.76
1777398928477,1557802,-0.60,-0.41,0.67,2.38,-4.64,-5.07
1777398928477,1557822,-0.60,-0.42,0.67,2.87,-4.33,-4.52
1777398928477,1557832,-0.60,-0.42,0.67,3.36,-4.76,-4.58
1777398928477,1557842,-0.60,-0.41,0.67,3.05,-4.64,-4.58
1777398928477,1557852,-0.60,-0.41,0.66,2.32,-4.15,-4.76
1777398928477,1557862,-0.61,-0.42,0.66,1.77,-4.09,-4.88
1777398928478,1557872,-0.61,-0.42,0.67,1.77,-4.33,-4.27
1777398928478,1557882,-0.61,-0.43,0.67,2.38,-4.64,-3.54
1777398928478,1557892,-0.60,-0.42,0.67,3.54,-4.88,-3.54
1777398928478,1557902,-0.60,-0.41,0.67,4.33,-5.19,-3.72
1777398928478,1557912,-0.60,-0.41,0.67,3.66,-5.19,-4.15
1777398928478,1557922,-0.60,-0.41,0.67,2.69,-5.19,-4.27
1777398928478,1557932,-0.60,-0.41,0.67,2.44,-5.07,-3.85
1777398928478,1557942,-0.60,-0.41,0.67,2.38,-5.07,-3.72
1777398928479,1557952,-0.60,-0.41,0.67,1.83,-4.82,-3.78
1777398928479,1557962,-0.60,-0.41,0.67,1.89,-4.33,-3.97
1777398928479,1557972,-0.60,-0.41,0.67,2.56,-4.27,-4.09
1777398928479,1557982,-0.60,-0.41,0.67,2.81,-4.15,-4.27
1777398928479,1557992,-0.60,-0.41,0.67,2.32,-3.85,-4.58
1777398928479,1558002,-0.60,-0.41,0.67,1.77,-3.42,-4.82
1777398928479,1558012,-0.60,-0.41,0.67,1.59,-3.30,-4.52
1777398928479,1558022,-0.61,-0.42,0.67,1.40,-3.17,-4.27
1777398928480,1558032,-0.61,-0.42,0.67,1.71,-3.36,-4.09
1777398928480,1558042,-0.61,-0.42,0.66,2.69,-3.85,-4.03
1777398928480,1558052,-0.61,-0.42,0.66,3.54,-4.52,-3.91
1777398928480,1558062,-0.61,-0.41,0.66,3.54,-4.94,-3.85
1777398928480,1558072,-0.61,-0.42,0.66,2.69,-4.94,-4.21
1777398928480,1558082,-0.60,-0.42,0.66,2.44,-5.00,-4.39
1777398928480,1558092,-0.61,-0.42,0.67,2.81,-5.19,-4.09
1777398928480,1558102,-0.60,-0.42,0.67,2.99,-5.19,-3.97
1777398928481,1558122,-0.60,-0.41,0.67,2.44,-4.39,-4.03
1777398928481,1558142,-0.60,-0.41,0.67,2.32,-4.33,-4.21
1777398928481,1558162,-0.60,-0.41,0.67,2.69,-4.88,-4.21
1777398928481,1558182,-0.61,-0.41,0.67,2.26,-4.27,-4.03
1777398928481,1558192,-0.61,-0.41,0.67,2.20,-4.27,-3.97
1777398928481,1558202,-0.61,-0.41,0.66,2.14,-4.58,-4.09
1777398928481,1558212,-0.61,-0.41,0.67,1.89,-4.46,-4.15
1777398928481,1558222,-0.60,-0.41,0.67,1.77,-4.27,-4.15
1777398928481,1558232,-0.60,-0.42,0.67,2.01,-4.21,-4.21
1777398928482,1558242,-0.60,-0.42,0.67,1.83,-3.97,-4.76
1777398928482,1558252,-0.60,-0.42,0.67,1.40,-3.54,-5.25
1777398928482,1558262,-0.60,-0.42,0.67,1.46,-3.54,-4.82
1777398928482,1558272,-0.60,-0.41,0.66,2.01,-3.85,-4.52
1777398928482,1558282,-0.60,-0.41,0.66,2.26,-4.15,-4.64
1777398928482,1558292,-0.61,-0.41,0.66,2.26,-4.46,-4.76
1777398928482,1558302,-0.61,-0.41,0.66,2.38,-4.76,-4.88
1777398928482,1558312,-0.61,-0.41,0.66,2.50,-5.07,-4.88
1777398928483,1558322,-0.61,-0.42,0.67,2.44,-5.19,-4.76
1777398928483,1558332,-0.61,-0.42,0.67,2.20,-4.88,-4.64
1777398928483,1558342,-0.60,-0.42,0.67,2.08,-4.46,-4.39
1777398928483,1558352,-0.60,-0.42,0.67,2.01,-4.15,-4.21
1777398928483,1558362,-0.60,-0.42,0.67,2.01,-3.97,-4.58
1777398928483,1558372,-0.60,-0.41,0.67,2.14,-4.09,-4.94
1777398928483,1558382,-0.60,-0.41,0.66,2.56,-4.21,-4.58
1777398928483,1558392,-0.60,-0.41,0.66,2.50,-4.21,-4.21
1777398928484,1558402,-0.60,-0.41,0.67,1.77,-4.03,-4.76
1777398928484,1558412,-0.61,-0.42,0.67,1.16,-3.85,-5.25
1777398928484,1558422,-0.61,-0.42,0.67,1.34,-3.91,-4.76
1777398928484,1558432,-0.61,-0.42,0.67,2.08,-4.27,-3.97
1777398928484,1558442,-0.61,-0.42,0.67,2.87,-4.58,-4.21
1777398928484,1558452,-0.61,-0.41,0.66,3.23,-4.70,-4.64
1777398928484,1558472,-0.61,-0.41,0.66,1.95,-4.88,-4.33
1777398928484,1558492,-0.60,-0.42,0.67,1.83,-5.25,-4.09
1777398928484,1558512,-0.60,-0.41,0.67,2.50,-4.76,-4.33
1777398928485,1558522,-0.60,-0.41,0.67,1.95,-4.21,-4.64
1777398928485,1558532,-0.60,-0.42,0.67,1.65,-3.66,-4.39
1777398928485,1558542,-0.61,-0.42,0.67,1.77,-3.48,-4.09
1777398928485,1558552,-0.60,-0.42,0.67,2.01,-3.60,-4.58
1777398928485,1558562,-0.61,-0.41,0.66,2.14,-3.85,-5.19
1777398928485,1558572,-0.61,-0.41,0.66,1.89,-3.91,-5.19
1777398928485,1558582,-0.61,-0.41,0.66,1.28,-4.03,-5.00
1777398928485,1558592,-0.61,-0.41,0.66,1.40,-4.39,-4.70
1777398928486,1558602,-0.61,-0.42,0.67,1.10,-4.33,-4.39
1777398928486,1558612,-0.61,-0.42,0.67,0.24,-3.72,-4.27
1777398928486,1558622,-0.61,-0.41,0.66,0.24,-3.60,-4.15
1777398928486,1558632,-0.61,-0.41,0.66,0.00,-3.48,-4.15
1777398928486,1558642,-0.60,-0.42,0.66,-0.61,-2.93,-3.85
1777398928486,1558652,-0.60,-0.42,0.66,0.37,-3.17,-4.33
1777398928486,1558662,-0.61,-0.42,0.66,2.32,-3.85,-5.19
1777398928486,1558672,-0.60,-0.42,0.66,3.66,-4.52,-5.37
1777398928486,1558682,-0.61,-0.41,0.66,4.15,-5.25,-5.43
1777398928487,1558692,-0.61,-0.41,0.66,3.78,-5.07,-5.19
1777398928487,1558702,-0.61,-0.42,0.66,2.50,-4.82,-4.52
1777398928487,1558712,-0.61,-0.42,0.66,1.04,-4.33,-4.27
1777398928487,1558722,-0.61,-0.43,0.66,0.61,-4.27,-4.15
1777398928487,1558732,-0.61,-0.42,0.66,1.34,-4.46,-3.85
1777398928487,1558742,-0.61,-0.42,0.66,2.44,-4.70,-3.72
1777398928487,1558752,-0.60,-0.41,0.66,3.23,-4.76,-4.09
1777398928487,1558762,-0.60,-0.41,0.66,3.23,-4.64,-4.58
1777398928488,1558772,-0.61,-0.41,0.66,2.62,-4.46,-4.52
1777398928488,1558782,-0.61,-0.42,0.66,2.20,-4.39,-4.15
1777398928488,1558792,-0.60,-0.41,0.66,2.08,-4.33,-4.82
1777398928488,1558812,-0.61,-0.41,0.67,2.20,-4.46,-5.00
1777398928488,1558832,-0.61,-0.41,0.66,2.93,-4.76,-4.70
1777398928488,1558852,-0.61,-0.42,0.66,2.26,-4.21,-4.39
1777398928488,1558872,-0.61,-0.42,0.66,2.62,-4.52,-4.82
1777398928488,1558882,-0.61,-0.42,0.66,2.75,-4.76,-4.70
1777398928488,1558892,-0.61,-0.42,0.66,3.17,-4.88,-4.33
1777398928489,1558902,-0.61,-0.42,0.66,2.69,-4.76,-4.21
1777398928489,1558912,-0.61,-0.42,0.66,1.89,-4.46,-4.21
1777398928489,1558922,-0.61,-0.42,0.67,1.28,-4.15,-4.46
1777398928489,1558932,-0.61,-0.42,0.66,1.46,-4.09,-4.88
1777398928489,1558942,-0.61,-0.42,0.66,2.20,-4.39,-4.52
1777398928489,1558952,-0.61,-0.42,0.66,2.81,-4.64,-4.39
1777398928489,1558962,-0.61,-0.42,0.66,2.93,-4.70,-4.82
1777398928489,1558972,-0.61,-0.42,0.66,2.62,-4.64,-5.19
1777398928490,1558982,-0.61,-0.42,0.66,2.50,-4.46,-4.76
1777398928490,1558992,-0.61,-0.42,0.66,2.32,-4.46,-4.39
1777398928490,1559002,-0.61,-0.42,0.66,2.38,-4.39,-4.15
1777398928490,1559012,-0.61,-0.42,0.66,2.56,-4.46,-3.91
1777398928490,1559022,-0.61,-0.42,0.66,2.75,-4.88,-3.97
1777398928490,1559032,-0.61,-0.41,0.66,2.81,-5.13,-3.91
1777398928490,1559042,-0.60,-0.41,0.66,2.62,-5.07,-4.27
1777398928490,1559052,-0.60,-0.42,0.66,2.38,-5.00,-4.70
1777398928490,1559062,-0.61,-0.42,0.66,2.50,-4.94,-4.82
1777398928491,1559072,-0.61,-0.42,0.67,2.38,-4.76,-4.88
1777398928491,1559082,-0.61,-0.42,0.67,2.01,-4.46,-4.76
1777398928491,1559092,-0.61,-0.42,0.66,2.26,-4.21,-4.58
1777398928491,1559102,-0.61,-0.41,0.66,2.62,-4.33,-4.33
1777398928491,1559112,-0.61,-0.41,0.66,2.38,-4.21,-4.09
1777398928491,1559122,-0.61,-0.41,0.66,1.89,-4.27,-4.21
1777398928491,1559132,-0.61,-0.42,0.66,2.26,-4.21,-4.09
1777398928491,1559142,-0.61,-0.42,0.66,2.87,-4.70,-5.07
1777398928491,1559162,-0.61,-0.42,0.66,2.32,-4.82,-4.15
1777398928492,1559182,-0.61,-0.42,0.66,2.38,-4.94,-4.03
1777398928492,1559202,-0.61,-0.41,0.66,2.38,-4.82,-4.15
1777398928492,1559212,-0.61,-0.41,0.66,2.50,-4.82,-4.39
1777398928492,1559222,-0.61,-0.42,0.67,2.26,-4.70,-4.46
1777398928492,1559232,-0.61,-0.42,0.67,2.01,-4.52,-4.52
1777398928492,1559242,-0.61,-0.42,0.67,1.77,-4.03,-4.64
1777398928492,1559252,-0.61,-0.42,0.67,1.89,-3.66,-4.70
1777398928492,1559262,-0.61,-0.42,0.66,2.08,-3.85,-5.00
1777398928493,1559272,-0.61,-0.42,0.66,2.69,-4.09,-4.76
1777398928493,1559282,-0.61,-0.42,0.65,3.36,-4.58,-4.39
1777398928493,1559292,-0.61,-0.41,0.65,3.54,-5.00,-4.09
1777398928493,1559302,-0.62,-0.42,0.65,2.81,-5.25,-3.91
1777398928493,1559312,-0.61,-0.42,0.66,2.08,-5.31,-4.09
1777398928493,1559322,-0.61,-0.42,0.66,1.95,-5.31,-4.33
1777398928493,1559332,-0.60,-0.42,0.67,2.26,-5.13,-4.03
1777398928493,1559342,-0.60,-0.42,0.67,2.62,-4.76,-3.78
1777398928493,1559352,-0.60,-0.42,0.66,3.23,-4.70,-4.03
1777398928494,1559362,-0.60,-0.41,0.66,3.66,-4.76,-4.33
1777398928494,1559372,-0.60,-0.41,0.66,3.30,-4.64,-4.39
1777398928494,1559382,-0.61,-0.41,0.66,2.62,-4.39,-4.46
1777398928494,1559392,-0.61,-0.41,0.66,2.14,-4.33,-4.58
1777398928494,1559402,-0.61,-0.41,0.66,2.20,-4.52,-4.82
1777398928494,1559412,-0.61,-0.42,0.66,2.32,-4.70,-4.82
1777398928494,1559422,-0.61,-0.42,0.66,2.44,-4.64,-4.82
1777398928494,1559432,-0.61,-0.42,0.67,2.38,-4.52,-4.76
1777398928494,1559442,-0.61,-0.42,0.66,2.62,-4.46,-4.39
1777398928495,1559452,-0.61,-0.42,0.66,2.75,-4.58,-4.64
1777398928495,1559462,-0.61,-0.42,0.66,2.62,-4.64,-5.00
1777398928495,1559472,-0.61,-0.42,0.66,2.81,-4.82,-4.70
1777398928495,1559482,-0.61,-0.41,0.66,2.99,-5.13,-4.64
1777398928495,1559502,-0.61,-0.42,0.66,2.14,-4.70,-4.46
1777398928495,1559522,-0.61,-0.42,0.66,2.44,-4.46,-4.09
1777398928495,1559542,-0.61,-0.41,0.66,2.44,-4.33,-4.21
1777398928495,1559562,-0.61,-0.41,0.66,2.99,-4.70,-4.76
1777398928495,1559572,-0.61,-0.41,0.66,2.56,-4.70,-5.00
1777398928495,1559582,-0.61,-0.41,0.66,2.38,-4.76,-4.76
1777398928496,1559592,-0.61,-0.42,0.66,2.56,-4.94,-4.15
1777398928496,1559602,-0.61,-0.42,0.66,2.50,-5.00,-4.52
1777398928496,1559612,-0.61,-0.42,0.67,2.26,-4.82,-5.07
1777398928496,1559622,-0.61,-0.42,0.66,2.56,-4.70,-4.76
1777398928496,1559632,-0.61,-0.42,0.66,2.99,-4.64,-4.46
1777398928496,1559642,-0.60,-0.41,0.66,2.93,-4.70,-4.82
1777398928496,1559652,-0.60,-0.41,0.66,2.56,-4.82,-5.13
1777398928496,1559662,-0.61,-0.41,0.66,2.26,-4.82,-4.88
1777398928497,1559672,-0.61,-0.42,0.66,1.95,-4.88,-4.82
1777398928497,1559682,-0.61,-0.42,0.66,1.83,-4.88,-4.70
1777398928497,1559692,-0.61,-0.42,0.67,1.77,-4.82,-4.52
1777398928497,1559702,-0.61,-0.42,0.67,1.95,-4.70,-4.52
1777398928497,1559712,-0.61,-0.42,0.67,2.38,-4.64,-4.76
1777398928497,1559722,-0.61,-0.41,0.66,2.99,-4.58,-4.70
1777398928497,1559732,-0.61,-0.41,0.66,3.11,-4.58,-4.39
1777398928497,1559742,-0.61,-0.41,0.66,2.99,-4.64,-4.46
1777398928497,1559752,-0.61,-0.41,0.66,2.69,-4.76,-4.39
1777398928498,1559762,-0.61,-0.42,0.66,2.32,-4.82,-4.21
1777398928498,1559772,-0.61,-0.42,0.66,2.14,-5.00,-4.09
1777398928498,1559782,-0.61,-0.42,0.66,2.32,-5.19,-4.09
1777398928498,1559792,-0.61,-0.42,0.66,2.81,-5.31,-4.27
1777398928498,1559802,-0.61,-0.41,0.66,2.99,-5.37,-4.46
1777398928498,1559812,-0.61,-0.41,0.66,3.05,-5.31,-4.64
1777398928498,1559822,-0.61,-0.41,0.66,2.99,-5.43,-4.70
1777398928498,1559832,-0.61,-0.41,0.66,2.62,-5.37,-4.76
1777398928498,1559852,-0.61,-0.42,0.67,1.71,-4.76,-4.52
1777398928499,1559872,-0.60,-0.42,0.67,1.83,-4.33,-4.52
1777398928499,1559892,-0.61,-0.42,0.66,1.89,-4.09,-4.76
1777398928499,1559902,-0.61,-0.42,0.66,2.20,-4.03,-4.39
1777398928499,1559912,-0.61,-0.42,0.66,2.56,-4.27,-4.64
1777398928499,1559922,-0.61,-0.42,0.66,2.87,-4.52,-4.82
1777398928499,1559932,-0.61,-0.42,0.66,3.36,-4.82,-4.58
1777398928499,1559942,-0.61,-0.42,0.66,3.54,-5.19,-4.27
1777398928499,1559952,-0.61,-0.42,0.66,3.17,-5.13,-4.15
1777398928500,1559962,-0.61,-0.42,0.66,2.75,-5.07,-4.09
1777398928500,1559972,-0.61,-0.41,0.66,2.56,-5.07,-3.85
1777398928500,1559982,-0.60,-0.41,0.66,2.62,-5.07,-3.78
1777398928500,1559992,-0.60,-0.41,0.66,2.69,-5.19,-4.21
1777398928500,1560002,-0.60,-0.41,0.66,2.81,-5.25,-4.76
1777398928500,1560012,-0.60,-0.41,0.67,2.69,-5.00,-4.94
1777398928500,1560022,-0.61,-0.41,0.67,2.01,-4.52,-4.82
1777398928500,1560032,-0.61,-0.42,0.67,1.53,-4.21,-4.82
1777398928500,1560042,-0.61,-0.42,0.67,1.77,-4.15,-4.70
1777398928501,1560052,-0.61,-0.42,0.67,2.14,-4.09,-4.58
1777398928501,1560062,-0.60,-0.42,0.66,2.26,-4.27,-4.76
1777398928501,1560072,-0.60,-0.42,0.66,2.50,-4.21,-4.76
1777398928501,1560082,-0.60,-0.42,0.66,3.42,-4.64,-4.70
1777398928501,1560092,-0.60,-0.42,0.66,3.66,-5.13,-5.13
1777398928501,1560102,-0.60,-0.42,0.66,3.17,-5.19,-5.37
1777398928501,1560112,-0.61,-0.42,0.66,2.62,-5.07,-4.88
1777398928501,1560122,-0.61,-0.42,0.66,2.08,-4.58,-4.15
1777398928501,1560132,-0.61,-0.42,0.66,1.77,-4.52,-4.09
1777398928502,1560142,-0.61,-0.42,0.66,1.83,-4.46,-4.21
1777398928502,1560152,-0.61,-0.42,0.66,2.14,-4.52,-4.21
1777398928502,1560162,-0.61,-0.42,0.66,2.56,-4.64,-4.27
1777398928502,1560172,-0.61,-0.42,0.66,2.75,-4.70,-4.64
1777398928502,1560192,-0.61,-0.42,0.67,2.44,-4.70,-4.46
1777398928502,1560212,-0.61,-0.41,0.66,2.69,-5.07,-4.39
1777398928502,1560232,-0.60,-0.41,0.66,2.56,-5.13,-4.52
1777398928502,1560252,-0.60,-0.42,0.66,1.83,-4.88,-4.82
1777398928502,1560262,-0.60,-0.42,0.67,1.40,-4.39,-5.00
1777398928503,1560272,-0.60,-0.42,0.67,1.34,-4.03,-5.13
1777398928503,1560282,-0.60,-0.42,0.66,1.59,-3.85,-5.25
1777398928503,1560292,-0.61,-0.42,0.66,1.83,-4.09,-5.43
1777398928503,1560302,-0.61,-0.42,0.66,2.08,-4.33,-5.37
1777398928503,1560312,-0.62,-0.42,0.66,2.26,-4.70,-5.07
1777398928503,1560322,-0.62,-0.42,0.66,2.32,-5.25,-4.70
1777398928503,1560332,-0.61,-0.42,0.66,2.26,-5.62,-4.39
1777398928503,1560342,-0.61,-0.42,0.67,1.89,-5.49,-4.15
1777398928503,1560352,-0.60,-0.42,0.67,1.83,-5.13,-3.97
1777398928504,1560362,-0.60,-0.42,0.67,2.38,-4.88,-3.91
1777398928504,1560372,-0.60,-0.42,0.66,2.93,-4.94,-3.97
1777398928504,1560382,-0.60,-0.42,0.66,3.30,-5.00,-4.27
1777398928504,1560392,-0.60,-0.41,0.66,3.23,-5.00,-4.52
1777398928504,1560402,-0.60,-0.42,0.66,2.93,-4.88,-4.21
1777398928504,1560412,-0.60,-0.42,0.66,2.32,-4.70,-3.78
1777398928504,1560422,-0.60,-0.42,0.67,2.14,-4.64,-3.72
1777398928504,1560432,-0.61,-0.42,0.67,2.69,-4.70,-3.78
1777398928504,1560442,-0.61,-0.42,0.66,2.87,-4.64,-4.09
1777398928505,1560452,-0.61,-0.42,0.66,2.75,-4.70,-4.27
1777398928505,1560462,-0.61,-0.42,0.66,2.69,-4.70,-4.09
1777398928505,1560472,-0.61,-0.42,0.66,2.50,-4.70,-3.85
1777398928505,1560482,-0.61,-0.42,0.66,2.38,-4.76,-3.85
1777398928505,1560492,-0.61,-0.42,0.66,2.62,-4.94,-3.97
1777398928505,1560502,-0.61,-0.41,0.66,2.93,-5.13,-4.09
1777398928505,1560512,-0.61,-0.41,0.66,2.81,-5.07,-4.27
1777398928505,1560532,-0.61,-0.41,0.67,2.08,-4.33,-3.97
1777398928505,1560552,-0.60,-0.42,0.67,2.44,-3.78,-4.46
1777398928505,1560572,-0.60,-0.41,0.66,2.75,-3.54,-4.58
1777398928506,1560592,-0.61,-0.42,0.66,3.05,-4.09,-4.46
1777398928506,1560602,-0.61,-0.42,0.66,2.81,-4.15,-4.27
1777398928506,1560612,-0.61,-0.42,0.66,2.26,-4.09,-4.58
1777398928506,1560622,-0.61,-0.42,0.66,2.01,-4.09,-4.94
1777398928506,1560632,-0.61,-0.42,0.66,2.20,-4.46,-4.70
1777398928506,1560642,-0.61,-0.42,0.66,2.44,-4.58,-4.58
1777398928506,1560652,-0.61,-0.42,0.66,2.20,-4.39,-4.52
1777398928506,1560662,-0.61,-0.42,0.66,2.01,-4.46,-4.46
1777398928506,1560672,-0.61,-0.42,0.66,2.38,-4.58,-3.91
1777398928507,1560682,-0.61,-0.42,0.66,2.75,-4.70,-3.60
1777398928507,1560692,-0.61,-0.41,0.66,2.69,-4.64,-3.78
1777398928507,1560702,-0.61,-0.42,0.67,2.87,-4.70,-3.97
1777398928507,1560712,-0.61,-0.41,0.67,3.23,-4.76,-4.39
1777398928507,1560722,-0.60,-0.41,0.67,2.81,-4.64,-4.94
1777398928507,1560732,-0.60,-0.41,0.67,2.44,-4.46,-4.64
1777398928507,1560742,-0.61,-0.41,0.67,2.14,-4.15,-4.33
1777398928507,1560752,-0.61,-0.42,0.66,1.95,-3.97,-4.15
1777398928507,1560762,-0.61,-0.42,0.66,2.20,-3.91,-3.91
1777398928508,1560772,-0.61,-0.42,0.66,2.26,-3.91,-4.33
1777398928508,1560782,-0.61,-0.42,0.66,2.20,-3.78,-4.94
1777398928508,1560792,-0.61,-0.42,0.66,2.32,-3.91,-4.94
1777398928508,1560802,-0.61,-0.42,0.66,2.44,-4.27,-4.76
1777398928508,1560812,-0.61,-0.42,0.65,2.38,-4.58,-4.70
1777398928508,1560822,-0.61,-0.42,0.66,2.26,-4.76,-4.64
1777398928508,1560832,-0.61,-0.42,0.66,2.20,-5.00,-4.70
1777398928508,1560842,-0.61,-0.42,0.66,2.14,-5.07,-4.70
1777398928508,1560852,-0.61,-0.42,0.66,2.14,-5.25,-4.21
1777398928508,1560862,-0.61,-0.42,0.66,2.14,-5.25,-3.97
1777398928509,1560882,-0.60,-0.41,0.67,2.26,-4.82,-4.46
1777398928509,1560902,-0.60,-0.42,0.67,2.75,-4.64,-4.46
1777398928509,1560922,-0.61,-0.42,0.66,2.62,-4.33,-4.15
1777398928509,1560942,-0.61,-0.42,0.66,2.08,-4.03,-3.91
1777398928509,1560952,-0.61,-0.42,0.66,2.69,-4.27,-3.66
1777398928509,1560962,-0.61,-0.41,0.66,3.11,-4.64,-3.97
1777398928509,1560972,-0.61,-0.41,0.66,3.05,-4.70,-4.46
1777398928509,1560982,-0.61,-0.41,0.66,3.05,-4.76,-4.52
1777398928509,1560992,-0.61,-0.41,0.66,2.93,-4.94,-4.46
1777398928510,1561002,-0.61,-0.41,0.66,3.05,-5.00,-4.39
1777398928510,1561012,-0.61,-0.41,0.66,2.93,-5.13,-4.39
1777398928510,1561022,-0.61,-0.41,0.66,2.56,-4.88,-4.76
1777398928510,1561032,-0.61,-0.41,0.67,2.20,-4.64,-5.00
1777398928510,1561042,-0.61,-0.42,0.67,2.01,-4.46,-4.88
1777398928510,1561052,-0.61,-0.42,0.67,2.20,-4.27,-4.70
1777398928510,1561062,-0.60,-0.42,0.66,2.62,-4.27,-4.64
1777398928510,1561072,-0.60,-0.41,0.66,2.75,-4.33,-4.58
1777398928510,1561082,-0.60,-0.41,0.66,2.69,-4.39,-4.52
1777398928510,1561092,-0.60,-0.42,0.66,2.69,-4.52,-4.46
1777398928511,1561102,-0.61,-0.42,0.66,2.87,-4.64,-4.33
1777398928511,1561112,-0.61,-0.42,0.66,2.93,-4.76,-4.21
1777398928511,1561122,-0.62,-0.42,0.66,2.75,-4.82,-4.58
1777398928511,1561132,-0.61,-0.41,0.66,2.69,-4.88,-4.88
1777398928511,1561142,-0.61,-0.41,0.66,2.56,-4.76,-4.58
1777398928511,1561152,-0.61,-0.41,0.66,2.26,-4.64,-4.46
1777398928511,1561162,-0.61,-0.41,0.67,1.83,-4.52,-4.64
1777398928511,1561172,-0.60,-0.42,0.67,1.89,-4.46,-5.07
1777398928511,1561182,-0.60,-0.42,0.67,2.50,-4.58,-4.70
1777398928512,1561192,-0.60,-0.42,0.67,2.99,-4.58,-4.39
1777398928512,1561202,-0.60,-0.41,0.66,2.99,-4.46,-4.39
1777398928512,1561222,-0.61,-0.41,0.66,1.40,-4.27,-5.31
1777398928512,1561242,-0.62,-0.42,0.66,2.38,-4.76,-5.13
1777398928512,1561262,-0.61,-0.42,0.66,2.38,-4.64,-4.88
1777398928512,1561282,-0.61,-0.42,0.66,2.01,-4.64,-3.42
1777398928512,1561292,-0.60,-0.42,0.66,2.01,-4.82,-3.72
1777398928512,1561302,-0.60,-0.41,0.66,2.32,-5.00,-4.33
1777398928512,1561312,-0.60,-0.41,0.66,2.75,-5.00,-4.46
1777398928513,1561322,-0.60,-0.41,0.66,2.81,-5.07,-4.46
1777398928513,1561332,-0.60,-0.41,0.66,2.81,-5.00,-4.58
1777398928513,1561342,-0.61,-0.42,0.67,2.38,-4.76,-4.58
1777398928513,1561352,-0.61,-0.42,0.67,2.14,-4.52,-4.76
1777398928513,1561362,-0.61,-0.42,0.66,2.50,-4.39,-4.82
1777398928513,1561372,-0.61,-0.41,0.66,2.69,-4.46,-4.88
1777398928513,1561382,-0.61,-0.41,0.66,2.56,-4.52,-5.19
1777398928513,1561392,-0.61,-0.41,0.66,2.44,-4.64,-5.31
1777398928513,1561402,-0.61,-0.41,0.66,2.08,-4.88,-5.31
1777398928513,1561412,-0.61,-0.41,0.66,1.71,-5.07,-4.88
1777398928514,1561422,-0.61,-0.42,0.66,1.71,-5.13,-4.46
1777398928514,1561432,-0.61,-0.42,0.67,1.83,-5.25,-4.58
1777398928514,1561442,-0.61,-0.42,0.67,2.14,-5.31,-4.58
1777398928514,1561452,-0.61,-0.42,0.67,2.50,-5.19,-4.39
1777398928514,1561462,-0.60,-0.41,0.67,2.62,-4.88,-4.46
1777398928514,1561472,-0.60,-0.41,0.67,2.32,-4.21,-4.21
1777398928514,1561482,-0.60,-0.42,0.67,2.14,-3.78,-4.15
1777398928514,1561492,-0.60,-0.42,0.66,2.56,-3.85,-4.46
1777398928514,1561502,-0.60,-0.41,0.66,3.30,-4.21,-4.94
1777398928514,1561512,-0.61,-0.41,0.66,3.36,-4.58,-5.07
1777398928515,1561522,-0.61,-0.42,0.66,2.75,-4.58,-4.88
1777398928515,1561532,-0.62,-0.42,0.66,2.14,-4.46,-4.46
1777398928515,1561542,-0.62,-0.42,0.66,1.95,-4.58,-3.91
1777398928515,1561552,-0.61,-0.42,0.66,1.83,-4.58,-4.15
1777398928515,1561572,-0.61,-0.42,0.66,3.60,-5.19,-3.91
1777398928515,1561592,-0.60,-0.41,0.66,2.99,-4.94,-4.76
1777398928515,1561612,-0.61,-0.41,0.66,2.32,-4.58,-4.46
1777398928515,1561632,-0.61,-0.41,0.67,2.01,-4.21,-4.27
1777398928515,1561642,-0.61,-0.42,0.67,2.38,-4.09,-4.39
1777398928515,1561652,-0.61,-0.41,0.66,2.93,-4.27,-4.46
1777398928515,1561662,-0.61,-0.41,0.66,3.30,-4.46,-4.88
1777398928516,1561672,-0.61,-0.41,0.66,3.23,-4.58,-5.31
1777398928516,1561682,-0.61,-0.41,0.66,2.93,-4.52,-5.19
1777398928516,1561692,-0.61,-0.41,0.66,2.50,-4.64,-5.00
1777398928516,1561702,-0.60,-0.42,0.66,2.14,-4.64,-4.88
1777398928516,1561712,-0.61,-0.43,0.66,1.77,-4.70,-4.94
1777398928516,1561722,-0.61,-0.43,0.67,2.14,-4.70,-4.82
1777398928516,1561732,-0.61,-0.42,0.67,2.75,-4.76,-4.70
1777398928516,1561742,-0.61,-0.42,0.66,2.87,-4.52,-4.46
1777398928516,1561752,-0.61,-0.41,0.66,2.50,-4.21,-4.33
1777398928516,1561762,-0.61,-0.41,0.66,2.20,-4.15,-4.09
1777398928517,1561772,-0.61,-0.41,0.66,2.26,-4.33,-3.66
1777398928517,1561782,-0.61,-0.42,0.66,2.50,-4.76,-3.60
1777398928517,1561792,-0.61,-0.42,0.67,2.93,-5.19,-3.36
1777398928517,1561802,-0.61,-0.41,0.67,3.54,-5.37,-3.48
1777398928517,1561812,-0.61,-0.40,0.67,3.48,-5.25,-3.66
1777398928517,1561822,-0.61,-0.40,0.67,2.44,-4.70,-3.85
1777398928517,1561832,-0.61,-0.41,0.67,2.20,-4.52,-3.97
1777398928517,1561842,-0.61,-0.41,0.67,2.93,-4.64,-4.09
1777398928517,1561852,-0.60,-0.41,0.66,3.17,-4.70,-4.27
1777398928518,1561862,-0.60,-0.41,0.66,2.75,-4.46,-4.94
1777398928518,1561872,-0.61,-0.41,0.66,2.20,-4.15,-5.55
1777398928518,1561882,-0.61,-0.42,0.66,1.53,-3.91,-5.37
1777398928518,1561892,-0.61,-0.42,0.66,1.22,-3.78,-5.13
1777398928518,1561912,-0.61,-0.42,0.66,2.81,-4.46,-4.70
1777398928518,1561932,-0.62,-0.42,0.66,2.81,-4.76,-3.85
1777398928518,1561952,-0.61,-0.42,0.66,2.14,-4.88,-3.78
1777398928518,1561972,-0.61,-0.41,0.66,3.23,-5.13,-4.39
1777398928518,1561982,-0.61,-0.41,0.66,3.11,-5.07,-4.46
1777398928518,1561992,-0.61,-0.41,0.67,2.87,-4.94,-4.27
1777398928519,1562002,-0.61,-0.41,0.67,2.75,-4.88,-3.97
1777398928519,1562012,-0.61,-0.41,0.67,2.38,-4.76,-4.27
1777398928519,1562022,-0.60,-0.41,0.67,2.01,-4.58,-4.76
1777398928519,1562032,-0.60,-0.41,0.67,2.01,-4.52,-4.64
1777398928519,1562042,-0.60,-0.41,0.66,2.26,-4.46,-4.52
1777398928519,1562052,-0.60,-0.41,0.66,2.50,-4.46,-4.76
1777398928519,1562062,-0.61,-0.42,0.66,2.50,-4.39,-4.88
1777398928519,1562072,-0.61,-0.42,0.66,2.32,-4.33,-5.25
1777398928519,1562082,-0.61,-0.42,0.66,2.01,-4.33,-5.31
1777398928519,1562092,-0.61,-0.42,0.66,1.89,-4.21,-5.00
1777398928520,1562102,-0.61,-0.42,0.66,1.77,-4.27,-4.76
1777398928520,1562112,-0.61,-0.41,0.66,1.89,-4.27,-4.27
1777398928520,1562122,-0.61,-0.41,0.66,2.14,-4.46,-4.03
1777398928520,1562132,-0.61,-0.41,0.66,2.50,-5.00,-4.46
1777398928520,1562142,-0.61,-0.41,0.67,2.87,-5.43,-4.82
1777398928520,1562152,-0.61,-0.41,0.67,2.81,-5.37,-4.52
1777398928520,1562162,-0.61,-0.42,0.67,2.38,-4.94,-4.09
1777398928520,1562172,-0.60,-0.42,0.67,1.95,-4.46,-3.85
1777398928520,1562182,-0.61,-0.42,0.67,1.77,-4.27,-3.97
1777398928521,1562192,-0.61,-0.42,0.66,2.32,-4.39,-4.52
1777398928521,1562202,-0.61,-0.41,0.66,3.05,-4.58,-5.13
1777398928521,1562212,-0.61,-0.41,0.65,3.11,-4.76,-5.31
1777398928521,1562222,-0.61,-0.41,0.65,2.38,-4.88,-5.31
1777398928521,1562232,-0.61,-0.42,0.66,1.71,-4.88,-5.00
1777398928521,1562242,-0.61,-0.42,0.67,1.59,-4.94,-4.27
1777398928521,1562262,-0.61,-0.42,0.67,2.75,-4.70,-4.21
1777398928521,1562282,-0.60,-0.41,0.66,2.44,-4.27,-4.70
1777398928521,1562302,-0.60,-0.42,0.66,1.71,-4.39,-5.25
1777398928522,1562322,-0.61,-0.42,0.66,2.44,-4.58,-5.07
1777398928522,1562332,-0.61,-0.41,0.66,2.62,-4.70,-4.88
1777398928522,1562342,-0.61,-0.42,0.66,2.26,-4.82,-4.70
1777398928522,1562352,-0.61,-0.42,0.66,1.83,-4.94,-4.76
1777398928522,1562362,-0.61,-0.42,0.66,1.77,-5.19,-4.58
1777398928522,1562372,-0.61,-0.42,0.66,1.77,-5.49,-4.27
1777398928522,1562382,-0.61,-0.42,0.66,2.20,-5.74,-3.85
1777398928522,1562392,-0.61,-0.42,0.66,2.99,-6.04,-3.72
1777398928522,1562402,-0.61,-0.42,0.67,3.17,-6.04,-4.09
1777398928522,1562412,-0.61,-0.42,0.67,2.62,-5.74,-4.46
1777398928523,1562422,-0.61,-0.42,0.67,2.44,-5.37,-4.21
1777398928523,1562432,-0.61,-0.43,0.67,2.50,-4.88,-3.78
1777398928523,1562442,-0.61,-0.43,0.67,2.75,-4.39,-3.42
1777398928523,1562452,-0.61,-0.42,0.67,3.11,-4.03,-3.23
1777398928523,1562462,-0.61,-0.42,0.67,3.48,-3.85,-3.48
1777398928523,1562472,-0.61,-0.42,0.67,3.97,-3.85,-3.91
1777398928523,1562482,-0.62,-0.42,0.67,4.70,-4.15,-3.66
1777398928523,1562492,-0.62,-0.41,0.66,5.25,-4.58,-3.30
1777398928523,1562502,-0.62,-0.41,0.67,5.07,-4.70,-3.30
1777398928523,1562512,-0.61,-0.40,0.67,4.70,-4.64,-3.30
1777398928524,1562522,-0.61,-0.40,0.67,4.27,-4.70,-3.17
1777398928524,1562532,-0.61,-0.40,0.67,4.15,-4.52,-3.23
1777398928524,1562542,-0.61,-0.40,0.67,4.27,-4.39,-3.30
1777398928524,1562552,-0.61,-0.40,0.67,4.15,-3.97,-3.36
1777398928524,1562562,-0.60,-0.40,0.67,3.54,-3.48,-4.09
1777398928524,1562572,-0.60,-0.41,0.67,3.36,-3.36,-4.82
1777398928524,1562582,-0.60,-0.41,0.66,3.54,-3.48,-5.00
1777398928524,1562602,-0.60,-0.41,0.66,3.17,-3.54,-5.43
1777398928524,1562622,-0.60,-0.41,0.66,2.81,-4.15,-5.07
1777398928524,1562642,-0.61,-0.41,0.66,2.62,-4.58,-5.37
1777398928525,1562662,-0.62,-0.42,0.66,2.20,-4.58,-4.94
1777398928525,1562672,-0.62,-0.42,0.67,2.75,-4.76,-4.58
1777398928525,1562682,-0.62,-0.41,0.66,3.36,-5.25,-4.39
1777398928525,1562692,-0.61,-0.40,0.66,3.42,-5.62,-4.27
1777398928525,1562702,-0.61,-0.40,0.66,2.75,-5.62,-4.33
1777398928525,1562712,-0.61,-0.40,0.66,1.89,-5.43,-4.33
1777398928525,1562722,-0.61,-0.41,0.67,1.40,-5.37,-4.33
1777398928525,1562732,-0.61,-0.41,0.67,1.59,-5.55,-4.21
1777398928525,1562742,-0.61,-0.41,0.67,2.08,-5.55,-4.09
1777398928525,1562752,-0.60,-0.41,0.67,2.20,-5.43,-4.52
1777398928526,1562762,-0.61,-0.41,0.67,1.77,-5.13,-4.94
1777398928526,1562772,-0.60,-0.41,0.67,1.95,-4.76,-4.76
1777398928526,1562782,-0.61,-0.42,0.67,1.83,-4.52,-4.33
1777398928526,1562792,-0.61,-0.42,0.67,1.59,-4.21,-4.27
1777398928526,1562802,-0.61,-0.42,0.67,1.77,-4.15,-3.91
1777398928526,1562812,-0.61,-0.42,0.66,2.75,-4.58,-3.78
1777398928526,1562822,-0.61,-0.41,0.66,3.66,-4.88,-3.54
1777398928526,1562832,-0.61,-0.41,0.66,3.30,-5.00,-3.78
1777398928526,1562842,-0.61,-0.41,0.66,2.56,-5.00,-3.85
1777398928527,1562852,-0.61,-0.41,0.66,2.08,-5.07,-3.97
1777398928527,1562862,-0.60,-0.41,0.67,1.83,-5.07,-4.27
1777398928527,1562872,-0.60,-0.41,0.67,2.08,-5.19,-4.15
1777398928527,1562882,-0.60,-0.41,0.67,2.62,-5.07,-3.85
1777398928527,1562892,-0.60,-0.40,0.67,2.69,-4.76,-4.27
1777398928527,1562902,-0.60,-0.40,0.67,2.26,-4.27,-4.64
1777398928527,1562912,-0.60,-0.40,0.67,1.95,-4.15,-4.76
1777398928527,1562922,-0.60,-0.40,0.67,2.01,-4.21,-4.88
1777398928527,1562932,-0.60,-0.41,0.66,2.14,-4.15,-5.00
1777398928527,1562952,-0.61,-0.41,0.66,2.01,-3.97,-5.98
1777398928528,1562972,-0.61,-0.42,0.66,2.01,-3.97,-5.07
1777398928528,1562992,-0.62,-0.42,0.66,2.26,-4.39,-3.91
1777398928528,1563012,-0.62,-0.42,0.66,2.62,-4.64,-3.54
1777398928528,1563022,-0.62,-0.41,0.66,2.93,-4.76,-3.48
1777398928528,1563032,-0.62,-0.41,0.66,3.05,-4.88,-3.48
1777398928528,1563042,-0.61,-0.40,0.66,2.69,-4.88,-3.60
1777398928528,1563052,-0.61,-0.40,0.66,1.95,-5.00,-3.91
1777398928528,1563062,-0.61,-0.40,0.67,1.04,-4.33,-3.48
1777398928528,1563072,-0.60,-0.41,0.67,1.16,-4.33,-3.30
1777398928528,1563082,-0.60,-0.41,0.68,2.01,-4.46,-3.91
1777398928529,1563092,-0.60,-0.41,0.67,2.62,-4.39,-4.58
1777398928529,1563102,-0.60,-0.40,0.67,2.81,-4.15,-4.82
1777398928529,1563112,-0.60,-0.40,0.67,2.38,-3.48,-4.82
1777398928529,1563122,-0.60,-0.40,0.66,1.16,-2.87,-4.88
1777398928529,1563132,-0.61,-0.40,0.66,-0.31,-2.62,-5.07
1777398928529,1563142,-0.61,-0.41,0.66,-1.59,-2.20,-5.25
1777398928529,1563152,-0.61,-0.40,0.65,-2.93,-2.20,-5.62
1777398928529,1563162,-0.62,-0.40,0.66,-5.80,-1.28,-5.07
1777398928530,1563172,-0.61,-0.41,0.66,-8.12,-0.79,-3.85
1777398928530,1563182,-0.62,-0.41,0.66,-8.73,-1.04,-2.81
1777398928530,1563192,-0.62,-0.40,0.66,-8.85,-1.04,-1.83
1777398928530,1563202,-0.62,-0.38,0.66,-10.56,-1.89,-1.40
1777398928530,1563212,-0.62,-0.37,0.65,-8.79,-5.13,-0.43
1777398928530,1563222,-0.58,-0.33,0.70,-4.09,-8.91,2.14
1777398928530,1563232,-0.65,-0.25,0.62,3.97,-17.21,4.33
1777398928530,1563242,-0.72,-0.18,0.66,14.53,-29.42,7.26
1777398928530,1563252,-0.51,-0.18,0.60,19.84,-38.39,17.33
1777398928530,1563262,-0.15,-0.20,0.19,45.23,-25.21,21.24
1777398928531,1563272,-0.65,-0.46,0.80,91.55,22.09,10.38
1777398928531,1563292,-0.70,-0.39,0.73,43.03,-3.78,0.61
1777398928531,1563312,-0.31,-0.54,0.63,47.49,-8.48,-19.17
1777398928531,1563332,-0.88,-0.45,0.74,53.28,8.48,-40.10
1777398928531,1563352,-0.74,-0.31,0.75,39.00,6.84,-12.27
1777398928531,1563362,-0.70,-0.40,0.70,39.12,-2.32,6.16
1777398928531,1563372,-0.61,-0.43,0.72,49.93,-2.08,15.75
1777398928531,1563382,-0.59,-0.41,0.78,55.60,0.61,13.37
1777398928531,1563392,-0.60,-0.35,0.82,52.06,-1.04,6.77
1777398928532,1563402,-0.62,-0.28,0.80,39.49,-6.10,1.28
1777398928532,1563412,-0.62,-0.25,0.74,23.62,-10.80,0.24
1777398928532,1563422,-0.61,-0.24,0.68,12.15,-11.60,1.34
1777398928532,1563432,-0.61,-0.22,0.65,1.77,-8.85,2.62
1777398928532,1563442,-0.59,-0.23,0.65,-10.86,-8.91,4.21
1777398928532,1563452,-0.58,-0.27,0.66,-19.53,-12.02,4.52
1777398928532,1563462,-0.58,-0.28,0.68,-23.86,-12.51,2.32
1777398928532,1563472,-0.59,-0.27,0.71,-25.33,-8.85,0.18
1777398928532,1563482,-0.57,-0.26,0.70,-23.32,-4.88,-1.16
1777398928532,1563492,-0.58,-0.29,0.69,-15.14,-3.36,-0.98
1777398928533,1563502,-0.64,-0.35,0.68,-4.64,-3.05,-0.43
1777398928533,1563512,-0.66,-0.36,0.72,9.70,-3.05,-0.31
1777398928533,1563522,-0.65,-0.33,0.77,20.57,-2.69,0.61
1777398928533,1563532,-0.64,-0.28,0.74,18.62,-4.33,-0.18
1777398928533,1563542,-0.63,-0.27,0.71,9.34,-5.74,-1.28
1777398928533,1563552,-0.65,-0.24,0.65,-1.22,-6.16,-1.10
1777398928533,1563562,-0.66,-0.21,0.64,-15.81,-4.46,1.16
1777398928533,1563572,-0.64,-0.24,0.63,-32.29,-2.26,6.71
1777398928533,1563582,-0.60,-0.28,0.61,-44.86,-0.92,10.99
1777398928533,1563592,-0.60,-0.33,0.69,-49.93,1.89,12.02
1777398928533,1563602,-0.60,-0.31,0.68,-55.24,1.10,8.18
1777398928534,1563612,-0.59,-0.29,0.67,-58.53,-0.49,5.00
1777398928534,1563622,-0.59,-0.29,0.64,-55.11,2.93,5.00
1777398928534,1563642,-0.50,-0.37,0.68,-18.31,2.08,-7.81
1777398928534,1563662,-0.50,-0.22,0.64,22.28,-42.11,-13.12
1777398928534,1563682,-0.74,-0.10,0.70,28.32,-20.69,-7.57
1777398928534,1563702,-0.46,-0.21,0.73,5.13,-34.61,-0.85
1777398928534,1563712,-0.68,-0.22,0.64,-31.98,-45.96,-9.52
1777398928534,1563722,-0.68,-0.21,0.55,-58.65,-47.97,-9.40
1777398928534,1563732,-0.35,-0.41,0.74,-71.29,-46.02,-6.96
1777398928534,1563742,-0.21,-0.40,0.63,-64.33,-56.34,-25.51
1777398928535,1563752,-0.39,-0.41,0.65,-73.79,-65.19,-59.20
1777398928535,1563762,-0.36,-0.41,0.54,-72.20,-68.54,-83.86
1777398928535,1563772,-0.29,-0.57,0.26,-8.67,-84.29,-84.11
1777398928535,1563782,-0.41,-0.37,0.45,55.24,-72.45,-79.04
1777398928535,1563792,-0.60,-0.43,0.80,42.05,-54.93,-65.67
1777398928535,1563802,-0.70,-0.51,0.85,-17.58,-59.51,-57.62
1777398928535,1563812,-0.67,-0.85,0.63,-41.63,-80.87,-52.98
1777398928535,1563822,-0.77,-0.55,0.74,-42.85,-75.99,-66.16
1777398928535,1563832,-0.73,-0.61,0.70,-35.16,-79.10,-62.38
1777398928535,1563842,-0.64,-0.56,0.66,-35.83,-84.11,-55.73
1777398928536,1563852,-0.58,-0.56,0.64,-49.01,-85.51,-48.22
1777398928536,1563862,-0.40,-0.46,0.68,-70.31,-81.24,-40.28
1777398928536,1563872,-0.35,-0.47,0.74,-96.74,-77.09,-39.43
1777398928536,1563882,-0.35,-0.48,0.76,-126.83,-74.34,-45.96
1777398928536,1563892,-0.34,-0.53,0.77,-165.83,-73.85,-53.28
1777398928536,1563902,-0.32,-0.68,0.75,-197.69,-75.87,-57.50
1777398928536,1563912,-0.29,-0.72,0.79,-202.51,-72.88,-58.78
1777398928536,1563922,-0.25,-0.75,0.79,-189.27,-74.34,-63.96
1777398928536,1563932,-0.22,-0.75,0.77,-145.39,-76.60,-74.77
1777398928536,1563942,-0.28,-1.07,1.01,-50.11,-75.01,-71.66
1777398928537,1563952,-0.10,-0.98,0.84,113.40,-69.46,-62.01
1777398928537,1563962,-0.03,-0.21,0.34,229.74,-46.88,-88.99
1777398928537,1563982,-0.19,-0.25,0.83,84.96,-120.12,-102.05
1777398928537,1564002,-0.10,-0.63,0.82,162.54,-81.36,-118.23
1777398928537,1564022,-0.06,-0.58,0.75,212.77,15.69,-62.99
1777398928537,1564042,-0.12,-0.27,0.68,292.97,31.80,-36.56
1777398928537,1564052,-0.12,-0.25,0.62,343.75,1.34,-18.86
1777398928537,1564062,-0.17,-0.45,0.92,396.00,-30.70,-0.61
1777398928538,1564072,-0.09,-0.28,0.67,450.50,-65.12,13.55
1777398928538,1564082,-0.35,-0.65,3.10,404.60,-67.26,30.94
1777398928538,1564092,-0.01,-0.71,0.70,148.56,-8.18,48.65
1777398928538,1564102,-0.14,-0.17,0.71,133.79,8.79,28.87
1777398928538,1564112,-0.10,-0.17,0.71,185.00,-31.13,35.03
1777398928538,1564122,-0.40,0.20,1.15,221.98,-86.18,41.50
1777398928538,1564132,-0.07,-0.32,1.24,26.79,-183.65,29.48
1777398928538,1564142,0.58,0.02,1.79,-0.55,-174.13,30.70
1777398928538,1564152,-0.00,0.06,1.03,13.00,-30.15,17.21
1777398928538,1564162,-0.02,0.13,0.99,13.49,-0.61,8.97
1777398928539,1564172,0.01,0.01,1.00,-5.74,-10.13,6.90
1777398928539,1564182,0.01,0.03,1.01,-11.11,-10.62,3.66
1777398928539,1564192,0.00,0.00,1.00,1.65,-5.07,1.89
1777398928539,1564202,0.00,-0.01,1.00,2.20,-4.58,-1.46
1777398928539,1564212,0.04,0.04,0.99,1.59,-5.13,-0.49
1777398928539,1564222,-0.01,-0.03,1.00,0.85,-3.60,5.80
1777398928539,1564232,0.02,0.06,1.00,-1.53,-2.44,2.01
1777398928539,1564242,0.03,0.09,1.00,-1.16,-2.26,24.11
1777398928539,1564252,-0.03,-0.11,1.02,2.81,-1.16,59.81
1777398928539,1564262,0.03,-0.19,1.00,0.67,-2.81,62.19
1777398928539,1564272,-0.03,0.08,0.99,1.65,-4.82,62.32
1777398928539,1564282,0.07,-0.09,1.01,-1.53,-10.19,67.69
1777398928540,1564292,0.02,0.17,1.02,0.24,-7.75,51.94
1777398928540,1564302,0.05,0.13,1.02,0.61,-6.23,63.48
1777398928540,1564312,-0.00,-0.05,1.04,2.26,-5.25,81.18
1777398928540,1564332,-0.08,-0.04,1.00,3.91,-6.77,56.95
1777398928540,1564352,-0.08,-0.01,1.02,7.26,-7.08,50.66
1777398928540,1564372,-0.03,0.06,1.01,9.64,-1.40,32.59
1777398928540,1564392,0.01,0.07,0.98,9.77,2.38,11.72
1777398928540,1564402,0.02,0.07,1.00,3.60,2.38,1.04
1777398928540,1564412,0.04,0.07,1.00,2.20,3.54,-4.70
1777398928540,1564422,-0.03,0.07,0.99,2.14,1.65,-7.81
1777398928540,1564432,-0.04,0.07,1.00,2.32,-4.15,-6.96
1777398928541,1564442,-0.01,0.00,1.01,0.85,-5.49,-5.31
1777398928541,1564452,-0.01,-0.02,1.00,-0.06,-4.76,-6.59
1777398928541,1564462,-0.01,-0.01,1.00,2.56,-6.16,-6.41
1777398928541,1564472,-0.01,-0.01,1.00,3.42,-8.30,-4.46
1777398928541,1564482,-0.00,-0.02,1.00,0.85,-9.28,-2.20
1777398928541,1564492,0.00,-0.01,1.01,2.62,-8.18,-3.11
1777398928541,1564502,-0.00,-0.00,1.00,4.46,-6.29,-5.13
1777398928541,1564512,-0.00,-0.01,1.00,2.81,-5.00,-5.37
1777398928541,1564522,-0.00,-0.01,1.00,2.26,-4.58,-5.00
1777398928541,1564532,-0.00,-0.01,1.00,2.93,-4.70,-4.82
1777398928541,1564542,-0.00,-0.00,1.00,3.30,-4.27,-4.82
1777398928542,1564552,-0.00,-0.01,1.00,2.56,-3.72,-4.88
1777398928542,1564562,0.00,-0.01,1.00,2.26,-2.38,-5.00
1777398928542,1564572,-0.01,-0.01,1.00,2.01,-1.10,-4.94
1777398928542,1564582,-0.01,-0.01,1.00,2.01,-1.71,-4.88
1777398928542,1564592,-0.01,-0.01,1.00,2.26,-3.97,-5.00
1777398928542,1564602,-0.01,-0.01,1.00,2.14,-5.25,-4.88
1777398928542,1564612,-0.01,-0.01,1.00,2.62,-6.35,-4.33
1777398928542,1564622,-0.00,-0.01,1.00,2.99,-6.65,-4.27
1777398928542,1564632,-0.00,-0.01,1.00,2.69,-6.04,-4.15
1777398928542,1564642,-0.00,-0.01,1.00,2.62,-4.82,-4.70
1777398928542,1564652,-0.00,-0.01,1.00,2.32,-3.66,-5.37
1777398928543,1564672,-0.01,-0.01,1.00,2.44,-4.64,-4.82
1777398928543,1564692,-0.00,-0.01,1.00,2.20,-5.00,-4.82
1777398928543,1564712,-0.00,-0.01,1.00,2.32,-4.76,-5.00
1777398928543,1564732,-0.01,-0.01,1.00,2.38,-4.70,-4.82
1777398928543,1564742,-0.01,-0.01,1.00,2.69,-4.64,-4.21
1777398928543,1564752,-0.01,-0.01,1.00,2.69,-4.70,-4.39
1777398928543,1564762,-0.01,-0.01,1.00,2.50,-4.94,-4.82
1777398928543,1564772,-0.00,-0.01,1.00,2.44,-5.07,-5.00
1777398928543,1564782,-0.00,-0.01,1.00,2.26,-4.88,-5.25
1777398928543,1564792,-0.01,-0.01,1.01,2.38,-4.76,-5.07
1777398928543,1564802,-0.00,-0.01,1.00,2.38,-4.82,-4.76
1777398928544,1564812,-0.00,-0.01,1.00,2.38,-4.76,-4.64
1777398928544,1564822,-0.01,-0.01,1.00,2.50,-4.76,-4.39
1777398928544,1564832,-0.01,-0.01,1.00,2.38,-4.76,-4.88
1777398928544,1564842,-0.00,-0.01,1.00,2.20,-4.70,-5.37
1777398928544,1564852,-0.01,-0.01,1.00,2.50,-4.76,-5.00
1777398928544,1564862,-0.01,-0.01,1.00,2.50,-4.82,-4.82
1777398928544,1564872,-0.01,-0.01,1.00,2.62,-4.76,-4.52
1777398928544,1564882,-0.01,-0.01,1.00,2.69,-4.94,-4.33
1777398928544,1564892,-0.01,-0.01,1.00,2.56,-4.88,-4.52
1777398928544,1564902,-0.00,-0.01,1.00,2.38,-4.76,-4.82
1777398928544,1564912,-0.01,-0.01,1.00,2.50,-4.76,-4.52
1777398928545,1564922,-0.01,-0.01,1.00,2.69,-4.82,-4.27
1777398928545,1564932,-0.01,-0.01,1.00,2.56,-4.70,-4.64
1777398928545,1564942,-0.01,-0.01,1.00,2.38,-4.76,-4.94
1777398928545,1564952,-0.01,-0.01,1.00,2.56,-4.88,-4.64
1777398928545,1564962,-0.01,-0.01,1.00,2.69,-4.82,-4.21
1777398928545,1564972,-0.01,-0.01,1.00,2.56,-4.76,-4.52
1777398928545,1564982,-0.00,-0.01,1.00,2.50,-4.64,-4.76
1777398928545,1564992,-0.01,-0.01,1.00,2.56,-4.82,-4.70
1777398928545,1565002,-0.01,-0.01,1.00,2.50,-4.82,-4.70
1777398928545,1565022,-0.00,-0.01,0.99,2.62,-4.70,-4.70
1777398928545,1565042,-0.00,-0.00,1.01,2.50,-4.82,-4.76
1777398928546,1565062,-0.00,-0.01,1.00,2.26,-4.64,-5.19
1777398928546,1565082,-0.01,-0.01,1.00,2.26,-4.46,-5.31
1777398928546,1565092,-0.00,-0.01,1.00,2.38,-4.88,-5.13
1777398928546,1565102,-0.00,-0.01,1.00,2.44,-4.94,-4.82
1777398928546,1565112,-0.01,-0.01,1.00,2.56,-4.64,-4.39
1777398928546,1565122,-0.01,-0.01,1.00,2.62,-4.58,-4.33
1777398928546,1565132,-0.01,-0.01,1.00,2.75,-4.64,-4.27
1777398928546,1565142,-0.01,-0.00,1.00,2.81,-5.25,-4.58
1777398928546,1565152,-0.01,-0.00,1.00,2.38,-7.39,-4.52
1777398928546,1565162,-0.00,-0.01,1.00,1.46,-9.64,-3.97
1777398928547,1565172,0.01,-0.01,1.01,1.10,-9.22,-4.70
1777398928547,1565182,0.00,-0.02,0.99,0.06,-6.71,-5.86
1777398928547,1565192,0.00,-0.02,0.99,1.83,-5.19,-5.07
1777398928547,1565202,-0.00,-0.00,1.00,3.05,-4.46,-4.39
1777398928547,1565212,-0.01,-0.01,1.01,2.99,-4.15,-4.70
1777398928547,1565222,-0.00,-0.01,1.00,2.75,-4.52,-4.46
1777398928547,1565232,-0.00,-0.01,1.00,2.99,-4.46,-4.27
1777398928547,1565242,-0.00,-0.01,1.00,3.23,-4.03,-4.39
1777398928547,1565252,-0.00,-0.01,1.00,3.72,-3.42,-4.70
1777398928547,1565262,-0.00,-0.00,0.99,4.03,-2.93,-4.27
1777398928548,1565272,-0.00,-0.01,0.99,3.11,-2.75,-4.33
1777398928548,1565282,-0.01,-0.01,1.01,2.62,-2.93,-5.00
1777398928548,1565292,-0.01,-0.00,1.01,2.44,-2.93,-4.76
1777398928548,1565302,-0.00,-0.01,0.99,2.20,-2.87,-5.19
1777398928548,1565312,-0.01,-0.01,1.00,2.08,-3.23,-5.43
1777398928548,1565322,-0.00,-0.01,1.00,2.32,-4.39,-5.13
1777398928548,1565332,-0.01,-0.01,1.00,2.38,-4.76,-4.88
1777398928548,1565342,-0.01,-0.01,1.00,2.44,-4.88,-4.76
1777398928548,1565362,-0.00,-0.01,1.00,2.50,-4.76,-4.82
1777398928548,1565382,-0.00,-0.01,1.00,2.56,-4.33,-4.88
1777398928549,1565402,-0.00,-0.01,1.00,2.69,-4.82,-4.70
1777398928549,1565422,-0.00,-0.01,1.00,2.69,-4.64,-4.33
1777398928549,1565432,-0.00,-0.01,1.00,2.56,-4.58,-4.58
1777398928549,1565442,-0.00,-0.01,1.00,2.56,-4.70,-4.82
1777398928549,1565452,-0.01,-0.01,1.00,2.69,-4.58,-4.82
1777398928549,1565462,-0.01,-0.01,1.00,2.69,-4.82,-4.64
1777398928549,1565472,-0.01,-0.00,1.01,2.62,-4.88,-4.64
1777398928549,1565482,-0.01,-0.00,1.00,2.50,-4.94,-4.76
1777398928549,1565492,-0.01,-0.00,1.01,2.38,-4.88,-4.82
1777398928549,1565502,-0.00,-0.01,1.00,2.32,-4.76,-4.82
1777398928550,1565512,-0.00,-0.01,1.00,2.26,-4.58,-4.94
1777398928550,1565522,-0.00,-0.01,1.00,2.20,-4.64,-5.00
1777398928550,1565532,-0.00,-0.01,1.00,2.20,-4.76,-5.07
1777398928550,1565542,-0.00,-0.01,1.00,2.20,-4.88,-5.07
1777398928550,1565552,-0.00,-0.01,1.00,2.32,-4.70,-4.82
1777398928550,1565562,-0.00,-0.01,1.00,2.50,-4.76,-4.46
1777398928550,1565572,-0.01,-0.01,1.00,2.38,-4.88,-4.58
1777398928550,1565582,-0.00,-0.01,1.00,2.38,-4.82,-4.82
1777398928550,1565592,-0.00,-0.01,1.00,2.38,-4.76,-4.82
1777398928550,1565602,-0.01,-0.01,1.00,2.32,-4.82,-4.88
1777398928551,1565612,-0.00,-0.01,1.00,2.38,-4.94,-4.82
1777398928551,1565622,-0.00,-0.01,1.00,2.38,-4.88,-4.82
1777398928551,1565632,-0.00,-0.01,1.00,2.44,-4.82,-4.70
1777398928551,1565642,-0.01,-0.01,1.00,2.56,-4.70,-4.33
1777398928551,1565652,-0.00,-0.01,1.00,2.50,-4.76,-4.70
1777398928551,1565662,-0.00,-0.01,1.00,2.32,-4.76,-5.07
1777398928551,1565672,-0.00,-0.01,1.00,2.38,-4.88,-5.13
1777398928551,1565682,-0.00,-0.01,1.00,2.32,-4.88,-5.07
1777398928551,1565692,-0.00,-0.01,1.00,2.26,-4.64,-5.19
1777398928552,1565712,-0.00,-0.01,1.00,2.38,-4.70,-5.00
1777398928552,1565732,-0.01,-0.01,1.00,2.56,-4.70,-4.76
1777398928552,1565752,-0.01,-0.01,1.00,2.62,-4.70,-4.33
1777398928552,1565772,-0.00,-0.01,1.00,2.44,-4.70,-4.82
1777398928552,1565782,-0.00,-0.01,1.00,2.44,-4.70,-4.88
1777398928552,1565792,-0.00,-0.01,1.00,2.44,-4.64,-4.76
1777398928552,1565802,-0.00,-0.01,1.00,2.32,-4.64,-5.00
1777398928552,1565812,-0.00,-0.01,1.00,2.20,-4.64,-5.25
1777398928552,1565822,-0.00,-0.01,1.00,2.44,-4.70,-4.82
1777398928553,1565832,-0.01,-0.01,1.00,2.62,-4.76,-4.27
1777398928553,1565842,-0.00,-0.01,1.00,2.62,-4.88,-4.27
1777398928553,1565852,-0.00,-0.01,1.00,2.62,-4.76,-4.27
1777398928553,1565862,-0.00,-0.01,1.00,2.56,-4.70,-4.58
1777398928553,1565872,-0.00,-0.01,1.00,2.38,-4.76,-4.94
1777398928553,1565882,-0.00,-0.01,1.00,2.26,-4.64,-5.13
1777398928553,1565892,-0.00,-0.01,1.00,2.26,-4.70,-5.25
1777398928553,1565902,-0.00,-0.01,1.00,2.32,-4.58,-5.00
1777398928553,1565912,-0.00,-0.01,1.00,2.50,-4.76,-4.76
1777398928553,1565922,-0.00,-0.01,1.00,2.44,-4.76,-4.76
1777398928554,1565932,-0.00,-0.01,1.00,2.38,-4.76,-4.76
1777398928554,1565942,-0.00,-0.01,1.00,2.44,-4.76,-4.76
1777398928554,1565952,-0.00,-0.01,1.00,2.50,-4.70,-4.82
1777398928554,1565962,-0.00,-0.01,1.00,2.38,-4.58,-5.00
1777398928554,1565972,-0.00,-0.01,1.00,2.20,-4.58,-5.31
1777398928554,1565982,-0.00,-0.01,1.00,2.38,-4.70,-4.88
1777398928554,1565992,-0.01,-0.01,1.00,2.62,-4.76,-4.27
1777398928554,1566002,0.00,-0.01,0.97,2.50,-4.58,-4.58
1777398928554,1566012,-0.01,-0.01,1.01,2.56,-4.27,-4.82
1777398928555,1566022,-0.01,-0.00,1.02,2.69,-5.31,-4.46
1777398928555,1566032,-0.03,0.02,0.94,2.56,-7.39,-3.11
1777398928555,1566052,-0.06,-0.01,1.00,6.65,-2.62,-4.03
1777398928555,1566072,-0.01,-0.00,0.99,5.00,-2.99,-2.93
1777398928555,1566092,-0.03,-0.23,0.93,1.34,-4.58,-3.54
1777398928555,1566112,0.30,-0.81,0.98,1.34,-6.35,62.50
1777398928555,1566122,0.14,-0.50,1.01,0.79,-5.98,80.69
1777398928555,1566132,0.09,-0.19,1.00,0.24,-6.35,107.91
1777398928555,1566142,0.10,-0.12,0.98,0.12,-6.77,129.58
1777398928555,1566152,0.12,-0.12,1.02,0.00,-6.96,152.77
1777398928555,1566162,0.09,-0.13,1.01,0.18,-6.84,177.73
1777398928556,1566172,0.02,-0.09,1.00,0.43,-6.41,196.59
1777398928556,1566182,-0.78,2.52,1.01,1.59,-6.53,218.02
1777398928556,1566192,-0.08,-0.33,1.10,13.06,-1.65,301.39
1777398928556,1566202,0.04,-0.11,1.08,17.09,3.78,240.48
1777398928556,1566212,0.26,0.21,1.03,12.27,2.99,138.37
1777398928556,1566222,0.19,0.07,0.98,12.27,1.65,104.92
1777398928556,1566232,0.03,-0.14,1.09,8.54,17.33,117.13
1777398928556,1566242,-0.03,-0.07,1.05,8.12,39.98,147.89
1777398928556,1566252,-0.07,-0.32,1.25,10.31,52.25,182.92
1777398928556,1566262,0.07,-0.17,1.03,37.78,45.59,169.56
1777398928556,1566272,0.15,-0.37,1.01,39.06,35.28,120.42
1777398928557,1566282,-0.06,-0.19,0.91,30.52,26.67,69.27
1777398928557,1566292,-0.30,0.22,0.89,18.80,15.44,37.54
1777398928557,1566302,-0.32,0.31,1.07,-3.17,0.06,55.30
1777398928557,1566312,-0.08,0.35,1.10,-18.13,-17.40,82.52
1777398928557,1566322,0.24,0.43,1.09,-40.16,-27.10,86.98
1777398928557,1566332,0.17,0.28,1.13,-69.89,-23.32,88.13
1777398928557,1566342,0.05,0.10,1.02,-95.46,-6.47,83.19
1777398928557,1566352,-0.07,-0.14,0.91,-122.13,15.93,70.31
1777398928557,1566362,-0.02,-0.08,1.09,-131.77,47.06,50.96
1777398928558,1566372,-0.10,-0.18,1.29,-139.16,54.93,43.70
1777398928558,1566382,0.07,-0.22,1.34,-150.76,27.59,70.43
1777398928558,1566402,-0.17,-0.29,1.09,-217.41,34.67,93.93
1777398928558,1566422,-0.05,-0.10,1.17,-255.13,18.98,103.33
1777398928558,1566442,-0.22,-0.33,0.89,-327.09,0.24,83.31
1777398928558,1566452,-0.19,-0.54,0.93,-370.85,10.13,108.89
1777398928558,1566462,-0.26,-0.47,0.75,-404.91,24.84,130.98
1777398928558,1566472,-0.09,-0.66,0.62,-435.49,44.31,125.00
1777398928558,1566482,-0.10,-1.34,0.92,-442.32,49.56,82.58
1777398928558,1566492,-0.28,-0.67,0.47,-293.95,-67.63,-9.95
1777398928559,1566502,-0.25,-0.60,0.69,-157.84,-161.74,-72.45
1777398928559,1566512,-0.19,-0.52,0.90,-153.75,-122.68,-49.19
1777398928559,1566522,-0.23,-0.42,0.92,-151.86,-141.72,-58.84
1777398928559,1566532,-0.07,-0.64,0.73,-151.67,-158.14,-62.93
1777398928559,1566542,-0.02,-0.75,0.64,-147.71,-163.64,-65.37
1777398928559,1566552,0.06,-0.71,0.55,-142.94,-168.52,-61.77
1777398928559,1566562,0.03,-0.56,0.38,-157.53,-177.61,-54.08
1777398928559,1566572,-0.36,-0.81,0.30,-193.36,-178.41,-48.22
1777398928559,1566582,-0.46,-1.08,0.29,-222.17,-157.29,-75.07
1777398928560,1566592,0.48,-0.63,0.23,-191.53,-118.53,-98.88
1777398928560,1566602,0.14,-0.88,0.47,-116.64,-64.76,-87.71
1777398928560,1566612,0.05,-1.16,0.48,-29.11,-15.20,-84.05
1777398928560,1566622,0.18,-0.78,0.47,24.05,7.51,-94.73
1777398928560,1566632,0.11,-0.67,0.60,40.65,17.82,-86.49
1777398928560,1566642,-0.04,-0.53,0.54,29.85,8.48,-61.40
1777398928560,1566652,0.05,-0.99,0.41,-1.77,-11.54,-35.03
1777398928560,1566662,0.29,-1.01,0.48,-22.58,-22.46,-31.25
1777398928560,1566672,0.28,-1.22,0.55,-22.64,-23.07,-32.71
1777398928561,1566682,0.34,-1.27,0.53,6.90,-13.24,-46.57
1777398928561,1566692,0.38,-1.21,0.61,73.18,13.85,-64.82
1777398928561,1566702,0.25,-1.05,0.77,144.29,39.61,-77.45
1777398928561,1566712,0.15,-0.87,0.77,183.23,41.02,-80.93
1777398928561,1566722,0.23,-0.73,0.70,212.77,37.66,-51.03
1777398928561,1566742,-0.14,-0.27,1.09,416.69,94.67,16.78
1777398928561,1566762,-0.35,0.10,0.98,671.69,214.84,154.66
1777398928561,1566782,-0.18,-0.64,1.03,822.39,375.79,255.43
1777398928561,1566802,0.35,-1.25,1.10,729.00,415.10,193.91
1777398928561,1566812,0.86,-1.40,1.30,572.39,344.97,108.89
1777398928562,1566822,0.72,-1.19,1.93,342.77,191.47,17.52
1777398928562,1566832,0.19,-0.61,1.89,25.82,-55.60,-73.61
1777398928562,1566842,-0.32,0.20,1.44,-254.70,-275.33,-141.72
1777398928562,1566852,-0.50,0.71,1.05,-389.71,-385.86,-164.31
1777398928562,1566862,-0.44,0.78,0.92,-383.97,-398.80,-145.14
1777398928572,1566872,-0.48,0.79,0.84,-341.80,-381.65,-104.55
1777398928582,1566882,-0.45,0.70,0.72,-366.58,-388.67,-60.24
1777398928592,1566892,-0.46,0.60,0.49,-456.60,-413.27,-18.86
1777398928602,1566902,-0.49,0.45,0.12,-562.19,-430.54,22.28
1777398928612,1566912,-0.44,0.29,-0.28,-643.55,-414.98,66.22
1777398928622,1566922,-0.38,-0.08,-0.14,-669.43,-366.03,101.93
1777398928632,1566932,-0.11,-0.24,0.32,-581.91,-278.69,100.34
1777398928642,1566942,0.47,-0.66,0.90,-300.96,-112.92,85.57
1777398928652,1566952,0.54,-0.60,1.64,197.63,135.38,91.00
1777398928662,1566962,0.36,-0.50,2.14,668.27,323.36,112.98
1777398928672,1566972,0.17,-0.65,1.71,854.61,346.50,130.98
1777398928682,1566982,0.20,-1.14,1.13,784.12,281.62,128.72
1777398928692,1566992,0.66,-1.69,0.94,612.61,207.15,91.06
1777398928702,1567002,0.68,-1.66,0.90,419.92,123.11,29.42
1777398928712,1567012,0.41,-1.18,1.07,163.88,-2.62,-51.70
1777398928722,1567022,0.17,-0.77,1.14,-155.33,-160.28,-122.25
1777398928732,1567032,-0.01,-0.40,1.14,-418.27,-278.81,-165.16
1777398928742,1567042,-0.07,-0.24,1.22,-565.43,-332.15,-184.81
1777398928752,1567052,-0.12,-0.07,1.05,-615.60,-338.26,-179.50
1777398928762,1567062,-0.12,0.13,0.90,-620.73,-311.65,-154.30
1777398928772,1567072,-0.23,0.41,0.74,-592.53,-205.26,-45.65
1777398928792,1567092,-0.36,0.76,1.04,-56.27,-25.70,127.26
1777398928812,1567112,0.07,-0.35,1.18,622.56,249.94,226.81
1777398928832,1567132,0.32,-1.31,0.76,657.71,298.58,236.69
1777398928842,1567142,0.66,-1.75,0.78,483.09,242.86,186.89
1777398928852,1567152,0.77,-1.86,0.81,230.41,129.88,99.37
1777398928863,1567162,0.59,-1.67,0.69,-77.09,-18.49,-2.26
1777398928873,1567172,0.39,-1.40,0.55,-378.36,-149.23,-93.57
1777398928882,1567182,0.15,-1.11,0.44,-586.67,-216.37,-158.02
1777398928892,1567192,-0.22,-0.65,0.38,-692.87,-217.77,-187.44
1777398928902,1567202,-0.19,-0.38,0.86,-724.98,-181.76,-173.58
1777398928912,1567212,-0.19,0.31,1.86,-639.89,-128.11,-133.42
1777398928922,1567222,-0.27,0.79,2.67,-396.73,-62.44,-62.38
1777398928932,1567232,-0.37,0.89,2.87,-6.23,8.00,48.58
1777398928943,1567242,-0.49,0.41,2.28,422.36,77.33,166.69
1777398928952,1567252,-0.48,-0.32,1.57,739.32,161.44,271.61
1777398928962,1567262,-0.50,-0.92,1.20,888.24,238.34,333.01
1777398928973,1567272,-0.37,-1.20,1.07,864.32,272.22,340.03
1777398928982,1567282,0.35,-1.92,1.14,735.60,267.88,306.27
1777398928992,1567292,0.93,-2.56,1.16,580.14,231.14,235.78
1777398929002,1567302,0.94,-2.46,1.24,307.68,99.91,112.37
1777398929012,1567312,0.60,-2.03,0.96,-122.25,-113.16,-36.19
1777398929022,1567322,0.21,-1.30,0.60,-526.00,-286.99,-158.87
1777398929032,1567332,-0.12,-0.84,0.44,-779.11,-351.01,-238.28
1777398929042,1567342,-0.38,-0.35,0.51,-876.22,-321.35,-266.72
1777398929052,1567352,-0.59,0.57,1.24,-852.78,-248.41,-240.97
1777398929062,1567362,-0.62,1.08,2.31,-672.55,-164.49,-150.21
1777398929072,1567372,-0.53,1.01,2.80,-305.24,-80.99,-12.94
1777398929082,1567382,-0.43,0.57,2.43,149.96,2.44,114.87
1777398929092,1567392,-0.33,-0.23,1.70,522.28,85.69,217.59
1777398929102,1567402,-0.16,-0.94,1.07,741.33,169.07,280.76
1777398929112,1567412,0.03,-1.38,0.82,800.35,233.76,258.48
1777398929132,1567432,0.95,-2.41,0.69,236.08,88.01,59.81
1777398929152,1567452,0.60,-1.59,0.32,-543.88,-220.09,-184.81
1777398929172,1567472,-0.32,-1.02,0.45,-862.92,-212.46,-288.02
1777398929192,1567492,-0.48,0.17,2.04,-718.38,-74.16,-228.52
1777398929202,1567502,-0.47,0.78,3.12,-472.05,-32.65,-138.79
1777398929212,1567512,-0.26,0.90,3.20,-105.65,-9.77,-14.22
1777398929223,1567522,-0.48,0.48,2.50,290.16,13.18,108.03
1777398929232,1567532,-0.50,-0.34,1.52,589.78,55.18,217.65
1777398929242,1567542,-0.40,-0.88,0.80,729.55,105.96,282.90
1777398929252,1567552,-0.12,-1.49,0.52,725.16,151.61,297.79
1777398929262,1567562,0.69,-2.38,0.38,632.69,176.94,269.71
1777398929272,1567572,0.91,-2.54,0.45,459.72,157.04,173.34
1777398929282,1567582,1.00,-2.72,0.37,151.49,46.57,41.38
1777398929292,1567592,0.54,-2.20,0.25,-225.34,-95.46,-106.63
1777398929302,1567602,0.20,-1.76,0.17,-545.72,-187.74,-219.91
1777398929312,1567612,-0.18,-1.40,0.36,-742.19,-199.83,-291.99
1777398929322,1567622,-0.42,-0.94,0.84,-808.41,-154.91,-320.01
1777398929332,1567632,-0.52,-0.04,1.90,-753.72,-94.67,-299.50
1777398929342,1567642,-0.60,0.89,2.98,-560.49,-52.80,-223.94
1777398929352,1567652,-0.59,1.37,3.33,-221.62,-32.47,-92.96
1777398929362,1567662,-0.75,1.12,2.77,179.26,-19.47,59.69
1777398929372,1567672,-0.75,0.14,1.73,516.60,11.84,204.47
1777398929382,1567682,-0.46,-0.50,0.77,719.85,71.96,303.41
1777398929392,1567692,-0.43,-1.42,0.50,771.85,137.39,347.53
1777398929402,1567702,0.13,-1.72,0.71,725.95,191.16,330.75
1777398929412,1567712,0.72,-2.50,0.57,636.90,209.66,285.83
1777398929422,1567722,0.99,-2.61,0.47,467.65,173.34,180.48
1777398929432,1567732,1.00,-2.78,0.32,161.50,60.55,42.05
1777398929442,1567742,0.56,-2.36,0.18,-218.14,-85.82,-109.80
1777398929452,1567752,0.10,-1.84,0.15,-548.10,-178.83,-229.61
1777398929462,1567762,-0.27,-1.48,0.45,-762.02,-165.83,-334.35
1777398929482,1567782,-0.61,-0.29,1.96,-587.95,-47.67,-236.39
1777398929502,1567802,-0.71,1.03,2.75,134.22,-21.85,27.28
1777398929522,1567822,-0.63,-0.65,0.82,654.17,49.93,274.84
1777398929532,1567832,-0.36,-1.18,0.60,710.63,115.78,319.34
1777398929542,1567842,0.21,-2.07,0.57,678.10,168.40,315.61
1777398929552,1567852,0.81,-2.69,0.50,583.86,186.58,261.54
1777398929562,1567862,1.00,-2.88,0.49,381.90,134.34,144.47
1777398929572,1567872,0.81,-2.63,0.32,70.62,15.69,0.43
1777398929582,1567882,0.52,-2.21,0.28,-264.95,-103.33,-137.51
1777398929592,1567892,0.09,-1.66,0.27,-532.23,-171.02,-243.10
1777398929602,1567902,-0.34,-1.18,0.46,-684.94,-165.77,-300.78
1777398929612,1567912,-0.54,-0.74,0.93,-722.35,-117.68,-305.91
1777398929622,1567922,-0.55,-0.15,1.69,-667.97,-69.76,-272.83
1777398929632,1567932,-0.54,0.50,2.50,-519.41,-44.01,-205.69
1777398929642,1567942,-0.52,0.94,2.78,-265.26,-36.01,-101.14
1777398929652,1567952,-0.62,1.07,2.51,51.39,-27.83,22.71
1777398929662,1567962,-0.77,0.55,1.96,354.37,-5.37,152.53
1777398929672,1567972,-0.89,-0.45,1.11,583.62,38.51,263.61
1777398929682,1567982,-0.54,-0.98,0.98,708.98,105.22,331.97
1777398929692,1567992,0.05,-1.97,0.54,739.87,169.01,351.93
1777398929702,1568002,0.77,-2.98,0.29,675.35,212.28,307.74
1777398929712,1568012,1.10,-3.12,0.35,485.41,179.69,194.64
1777398929722,1568022,1.03,-3.06,0.21,148.50,59.02,33.69
1777398929732,1568032,0.35,-2.38,0.06,-255.07,-84.84,-143.31
1777398929742,1568042,0.02,-1.81,0.18,-560.42,-159.36,-259.40
1777398929752,1568052,-0.44,-1.32,0.46,-720.15,-157.29,-325.32
1777398929762,1568062,-0.66,-0.84,0.92,-765.81,-107.24,-335.39
1777398929772,1568072,-0.69,-0.20,1.62,-725.04,-56.76,-300.42
1777398929782,1568082,-0.74,0.65,2.60,-593.63,-31.62,-229.98
1777398929792,1568092,-0.58,1.07,3.11,-352.72,-31.25,-118.16
1777398929802,1568102,-0.59,1.12,2.99,-8.06,-27.16,149.72
1777398929822,1568122,-0.85,-0.16,1.57,714.42,48.58,343.63
1777398929842,1568142,-0.50,-2.49,0.15,702.03,136.66,360.17
1777398929862,1568162,1.07,-2.99,0.21,420.78,120.30,183.59
1777398929882,1568182,0.31,-1.98,0.21,-204.65,-85.51,-122.62
1777398929892,1568192,-0.13,-1.39,0.28,-496.52,-164.37,-225.59
1777398929902,1568202,-0.42,-1.03,0.46,-659.12,-168.27,-274.84
1777398929912,1568212,-0.46,-0.72,0.90,-703.37,-126.46,-281.19
1777398929923,1568222,-0.55,-0.29,1.50,-666.63,-83.74,-261.11
1777398929932,1568232,-0.69,0.42,2.28,-561.22,-61.22,-210.33
1777398929942,1568242,-0.55,0.86,2.84,-360.35,-52.25,-120.97
1777398929952,1568252,-0.59,0.95,2.92,-51.45,-44.49,-8.30
1777398929962,1568262,-0.72,0.53,2.32,288.27,-32.17,111.21
1777398929973,1568272,-0.76,-0.26,1.55,542.36,-7.39,217.53
1777398929982,1568282,-0.62,-0.83,0.97,678.34,35.10,286.01
1777398929992,1568292,-0.40,-1.31,0.76,707.70,81.30,313.42
1777398930002,1568302,0.49,-2.25,0.10,658.26,114.69,300.60
1777398930012,1568312,0.65,-2.67,0.22,543.52,136.66,220.70
1777398930022,1568322,0.99,-2.82,0.04,292.66,67.02,96.44
1777398930032,1568332,0.45,-2.31,0.05,-70.98,-48.16,-66.35
1777398930042,1568342,-0.01,-1.66,0.10,-431.40,-150.70,-184.94
1777398930052,1568352,-0.31,-1.22,0.22,-678.89,-185.36,-249.51
1777398930062,1568362,-0.46,-0.99,0.57,-798.58,-157.47,-269.29
1777398930072,1568372,-0.48,-0.69,1.18,-810.18,-104.49,-259.58
1777398930082,1568382,-0.43,-0.17,2.13,-737.98,-67.75,-226.26
1777398930092,1568392,-0.55,0.47,2.91,-572.94,-63.05,-164.92
1777398930102,1568402,-0.38,0.64,3.13,-298.58,-72.63,-67.93
1777398930112,1568412,-0.54,0.51,2.73,54.14,-76.84,39.31
1777398930122,1568422,-0.65,-0.10,1.86,384.52,-69.27,136.72
1777398930132,1568432,-0.55,-0.71,1.00,606.69,-37.23,218.75
1777398930142,1568442,-0.24,-1.63,0.27,708.13,19.90,266.11
1777398930152,1568452,0.42,-2.46,-0.35,682.13,90.52,178.41
1777398930172,1568472,0.63,-2.71,-0.54,-160.16,-57.31,-85.69
1777398930192,1568492,-0.26,-1.29,0.12,-646.30,-109.62,-225.04
1777398930212,1568512,-0.57,-0.08,1.94,-664.43,-48.52,-186.22
1777398930222,1568522,-0.30,0.39,2.96,-490.48,-49.68,-112.79
1777398930232,1568532,-0.24,0.39,3.09,-146.12,-49.62,-16.24
1777398930242,1568542,-0.46,0.09,2.35,274.78,-29.72,84.96
1777398930252,1568552,-0.48,-0.60,1.40,593.99,3.60,181.21
1777398930262,1568562,-0.37,-1.22,0.73,752.38,51.39,245.73
1777398930272,1568572,-0.11,-1.71,0.47,773.38,96.19,267.64
1777398930282,1568582,0.77,-2.49,0.03,688.11,121.52,242.74
1777398930293,1568592,0.63,-2.61,-0.08,513.67,118.53,155.94
1777398930302,1568602,0.82,-2.55,-0.24,234.19,54.81,42.60
1777398930312,1568612,0.42,-2.17,-0.23,-92.77,-30.40,-85.02
1777398930322,1568622,0.02,-1.62,-0.12,-381.90,-88.75,-180.24
1777398930332,1568632,-0.27,-1.18,0.20,-575.20,-95.83,-231.32
1777398930342,1568642,-0.50,-0.88,0.62,-661.25,-64.45,-240.48
1777398930352,1568652,-0.55,-0.45,1.21,-661.56,-27.77,-217.35
1777398930362,1568662,-0.51,0.05,2.14,-583.07,-8.06,-170.96
1777398930372,1568672,-0.41,0.43,2.89,-381.10,-4.76,-98.08
1777398930382,1568682,-0.36,0.55,3.00,-59.81,-6.59,-3.54
1777398930392,1568692,-0.57,0.23,2.39,287.72,-6.59,96.31
1777398930402,1568702,-0.58,-0.40,1.61,549.13,8.06,187.99
1777398930412,1568712,-0.54,-0.92,1.01,688.78,36.93,247.86
1777398930423,1568722,-0.34,-1.43,0.70,710.08,64.39,271.79
1777398930432,1568732,0.52,-2.44,0.07,645.32,82.40,255.62
1777398930442,1568742,0.50,-2.50,0.06,519.04,96.92,177.67
1777398930452,1568752,0.81,-2.59,-0.26,284.00,50.60,73.49
1777398930462,1568762,0.42,-2.22,-0.24,-35.58,-30.46,-62.19
1777398930472,1568772,0.08,-1.80,-0.22,-344.42,-98.75,-167.85
1777398930482,1568782,-0.23,-1.37,-0.02,-565.25,-115.30,-233.89
1777398930492,1568792,-0.48,-1.09,0.34,-674.50,-80.38,-244.87
1777398930512,1568812,-0.51,-0.16,2.13,-424.74,-0.31,-138.92
1777398930532,1568832,-0.38,0.43,2.61,228.52,-25.33,52.92
1777398930552,1568852,-0.58,-0.75,0.83,637.82,-1.53,221.56
1777398930572,1568872,0.02,-1.77,0.60,622.19,62.19,250.00
1777398930582,1568882,0.66,-2.18,0.25,529.79,74.65,201.90
1777398930592,1568892,0.59,-2.40,0.04,379.70,68.24,113.83
1777398930602,1568902,0.66,-2.19,-0.12,126.22,4.39,3.72
1777398930612,1568912,0.22,-1.75,-0.13,-172.00,-67.08,-109.50
1777398930622,1568922,-0.10,-1.21,-0.01,-417.66,-108.40,-182.13
1777398930632,1568932,-0.32,-0.85,0.30,-563.48,-99.30,-214.48
1777398930642,1568942,-0.41,-0.64,0.78,-603.82,-61.28,-210.27
1777398930652,1568952,-0.37,-0.47,1.34,-558.96,-24.41,-185.24
1777398930662,1568962,-0.40,-0.04,2.12,-453.25,-8.30,-151.55
1777398930672,1568972,-0.35,0.26,2.64,-272.03,-13.55,-98.57
1777398930682,1568982,-0.40,0.44,2.45,-6.23,-22.28,-23.25
1777398930692,1568992,-0.50,0.07,1.87,252.01,-24.96,59.39
1777398930702,1569002,-0.45,-0.35,1.09,437.56,-11.60,129.52
1777398930712,1569012,-0.31,-0.94,0.61,519.71,15.69,172.97
1777398930722,1569022,0.16,-1.72,0.21,502.62,41.02,180.36
1777398930732,1569032,0.58,-2.26,-0.12,408.26,56.40,137.33
1777398930742,1569042,0.68,-2.39,-0.32,225.83,41.44,49.50
1777398930752,1569052,0.58,-2.36,-0.41,-39.61,-5.98,-60.12
1777398930762,1569062,0.16,-2.00,-0.32,-326.05,-54.14,-165.59
1777398930772,1569072,-0.15,-1.63,0.00,-564.09,-71.78,-236.82
1777398930782,1569082,-0.40,-1.42,0.47,-697.88,-51.39,-268.19
1777398930792,1569092,-0.39,-1.30,1.16,-724.98,-15.32,-269.04
1777398930802,1569102,-0.20,-1.01,2.05,-655.40,10.19,-253.54
1777398930812,1569112,-0.18,-0.51,2.73,-504.82,3.60,-228.15
1777398930822,1569122,-0.29,0.21,2.76,-299.26,-32.65,-180.73
1777398930832,1569132,-0.53,0.66,2.34,-74.52,-78.67,-102.54
1777398930842,1569142,-0.72,0.74,1.48,161.68,-69.64,116.76
1777398930862,1569162,-0.57,-0.22,0.49,634.83,71.41,278.20
1777398930882,1569182,0.61,-2.32,0.48,596.74,136.72,276.37
1777398930902,1569202,0.88,-2.59,-0.19,168.27,22.77,65.12
1777398930912,1569212,0.52,-2.07,-0.29,-108.15,-49.38,-58.96
1777398930923,1569222,0.07,-1.45,-0.18,-336.36,-85.39,-151.55
1777398930932,1569232,-0.32,-0.87,0.21,-468.63,-76.72,-191.16
1777398930942,1569242,-0.47,-0.42,0.76,-496.52,-45.90,-180.79
1777398930952,1569252,-0.54,0.09,1.43,-444.03,-22.77,-139.95
1777398930962,1569262,-0.47,0.35,1.94,-305.11,-11.47,-77.64
1777398930972,1569272,-0.44,0.40,2.18,-56.58,8.36,3.78
1777398930982,1569282,-0.47,0.17,1.89,232.67,34.91,92.71
1777398930992,1569292,-0.39,-0.45,1.40,440.25,57.01,169.49
1777398931002,1569302,-0.26,-1.06,0.95,523.38,68.97,213.56
1777398931012,1569312,0.11,-1.69,0.67,514.95,81.30,213.93
1777398931022,1569322,0.55,-2.28,0.21,427.61,74.46,176.94
1777398931032,1569332,0.65,-2.36,0.09,258.67,44.13,88.50
1777398931042,1569342,0.51,-2.18,-0.12,30.94,-14.89,-16.24
1777398931052,1569352,0.28,-1.87,-0.14,-204.59,-63.84,-110.47
1777398931062,1569362,0.04,-1.53,0.02,-391.91,-76.48,-180.91
1777398931072,1569372,-0.17,-1.26,0.32,-495.97,-54.81,-222.84
1777398931082,1569382,-0.38,-1.03,0.66,-519.53,-15.63,-234.13
1777398931092,1569392,-0.36,-0.74,1.05,-491.82,16.17,-220.28
1777398931102,1569402,-0.41,-0.25,1.75,-422.00,25.57,-190.61
1777398931112,1569412,-0.41,0.20,2.10,-283.51,11.90,-131.47
1777398931122,1569422,-0.38,0.49,2.14,-94.24,-9.16,-50.48
1777398931132,1569432,-0.46,0.44,1.77,121.89,-16.48,39.73
1777398931142,1569442,-0.50,0.02,1.29,318.66,-5.49,127.69
1777398931152,1569452,-0.44,-0.42,0.94,443.12,15.87,194.40
1777398931162,1569462,-0.36,-0.85,0.78,489.62,40.04,232.36
1777398931172,1569472,0.05,-1.61,0.46,486.94,63.11,242.92
1777398931182,1569482,0.48,-2.18,0.23,434.39,82.40,121.83
1777398931202,1569502,0.67,-2.44,-0.06,-150.09,-34.48,-105.83
1777398931222,1569522,-0.10,-1.07,0.35,-465.70,-54.81,-229.55
1777398931242,1569542,-0.54,-0.18,1.59,-432.92,-3.60,-200.74
1777398931262,1569562,-0.51,0.64,2.31,-103.21,-18.31,-66.59
1777398931272,1569572,-0.65,0.64,2.02,149.05,-20.20,33.57
1777398931282,1569582,-0.69,0.14,1.46,364.69,-11.60,135.80
1777398931292,1569592,-0.61,-0.34,0.98,497.56,9.46,216.31
1777398931302,1569602,-0.55,-0.68,0.81,547.18,39.92,263.18
1777398931312,1569612,-0.47,-0.81,1.07,554.99,79.96,276.86
1777398931322,1569622,0.27,-1.81,0.48,525.94,92.35,275.88
1777398931332,1569632,0.36,-2.01,0.55,457.95,105.53,215.45
1777398931342,1569642,0.63,-2.25,0.45,311.16,74.10,135.31
1777398931352,1569652,0.53,-2.04,0.26,94.42,2.99,24.48
1777398931362,1569662,0.24,-1.67,0.19,-138.61,-63.23,-78.92
1777398931372,1569672,0.02,-1.29,0.20,-311.52,-93.44,-155.27
1777398931382,1569682,-0.20,-0.97,0.40,-400.51,-80.26,-203.67
1777398931392,1569692,-0.39,-0.62,0.74,-412.84,-44.07,-221.50
1777398931402,1569702,-0.54,-0.12,1.22,-362.67,-9.46,-207.46
1777398931412,1569712,-0.66,0.33,1.72,-253.54,10.38,-159.55
1777398931422,1569722,-0.60,0.51,1.89,-87.34,18.68,-81.54
1777398931432,1569732,-0.53,0.40,1.75,97.66,23.68,6.47
1777398931442,1569742,-0.47,-0.02,1.40,246.34,30.94,81.79
1777398931452,1569752,-0.38,-0.41,1.07,335.27,43.33,132.51
1777398931462,1569762,-0.28,-0.72,0.87,366.70,57.68,155.52
1777398931472,1569772,-0.04,-1.16,0.63,352.42,68.30,154.60
1777398931482,1569782,0.23,-1.55,0.46,294.13,71.66,125.79
1777398931492,1569792,0.37,-1.75,0.38,184.75,55.85,67.20
1777398931502,1569802,0.34,-1.76,0.36,22.28,13.67,-11.05
1777398931512,1569812,0.19,-1.61,0.38,-164.49,-38.45,-91.86
1777398931522,1569822,-0.02,-1.34,0.45,-320.56,-71.66,-158.81
1777398931532,1569832,-0.21,-1.13,0.55,-417.79,-61.40,-221.44
1777398931552,1569852,-0.41,-0.81,0.94,-442.87,-28.14,-212.46
1777398931573,1569872,-0.32,-0.15,1.52,-315.12,-28.02,-157.84
1777398931592,1569892,-0.45,0.48,1.68,-60.79,-44.13,-37.17
1777398931602,1569902,-0.56,0.46,1.55,123.66,-34.30,48.65
1777398931612,1569912,-0.59,0.16,1.27,312.56,-7.63,137.21
1777398931622,1569922,-0.60,-0.28,1.14,458.50,28.87,210.63
1777398931632,1569932,-0.40,-0.84,0.98,543.70,63.17,260.01
1777398931642,1569942,-0.48,-0.80,1.19,591.25,107.91,273.44
1777398931652,1569952,-0.08,-1.59,0.90,599.85,132.32,286.13
1777398931662,1569962,-0.22,-1.17,1.33,593.57,149.17,261.54
1777398931672,1569972,-0.28,-1.12,1.39,564.76,142.15,247.68
1777398931682,1569982,-0.16,-1.10,1.34,524.23,117.13,226.87
1777398931692,1569992,0.04,-1.27,1.03,478.58,99.12,194.21
1777398931702,1570002,-0.08,-1.05,0.90,438.48,97.05,143.19
1777398931712,1570012,0.00,-1.01,0.68,380.74,89.66,97.90
1777398931722,1570022,-0.03,-0.86,0.59,298.77,76.60,45.23
1777398931732,1570032,-0.11,-0.71,0.51,195.50,53.89,-2.56
1777398931742,1570042,-0.12,-0.58,0.45,76.84,20.20,-47.00
1777398931752,1570052,-0.20,-0.42,0.43,-35.52,-5.80,-88.26
1777398931762,1570062,-0.34,-0.19,0.49,-122.68,-16.78,-117.92
1777398931772,1570072,-0.41,-0.05,0.63,-186.46,-20.32,-127.50
1777398931782,1570082,-0.42,-0.03,0.75,-240.66,-27.89,-124.94
1777398931792,1570092,-0.40,-0.13,0.77,-289.73,-39.25,-121.89
1777398931802,1570102,-0.37,-0.26,0.76,-328.00,-49.50,-121.83
1777398931812,1570112,-0.36,-0.35,0.85,-353.76,-53.65,-127.01
1777398931822,1570122,-0.26,-0.58,0.93,-371.95,-57.01,-135.62
1777398931832,1570132,-0.25,-0.71,1.01,-386.17,-60.97,-150.02
1777398931842,1570142,-0.24,-0.73,0.96,-410.77,-65.92,-167.91
1777398931852,1570152,-0.24,-1.05,1.24,-449.46,-72.20,-186.40
1777398931862,1570162,-0.28,-1.06,1.35,-468.99,-88.07,-209.96
1777398931872,1570172,-0.37,-0.81,1.23,-467.10,-99.12,-237.98
1777398931893,1570192,-0.56,-0.53,1.19,-427.00,-94.06,-208.86
1777398931912,1570212,-0.53,-0.21,1.19,-292.36,-67.38,-136.41
1777398931933,1570232,-0.26,-0.20,1.37,-78.00,-49.13,-44.74
1777398931952,1570252,-0.19,-0.46,1.29,224.61,-30.40,46.02
1777398931962,1570262,-0.13,-0.72,1.12,377.44,-12.39,85.27
1777398931972,1570272,0.11,-1.17,0.56,518.98,29.24,110.35
1777398931982,1570282,-0.00,-1.09,0.72,647.28,101.32,120.18
1777398931992,1570292,-0.04,-1.04,0.64,728.70,148.62,126.28
1777398932002,1570302,-0.17,-0.79,0.77,784.85,208.92,120.48
1777398932012,1570312,-0.26,-0.57,0.82,805.24,241.94,130.43
1777398932022,1570322,-0.13,-0.61,1.19,800.29,266.42,145.51
1777398932032,1570332,-0.32,-0.45,1.27,751.53,269.96,146.06
1777398932042,1570342,-0.19,-0.68,1.30,661.38,242.49,143.55
1777398932052,1570352,-0.11,-0.74,1.06,540.59,183.96,125.73
1777398932062,1570362,-0.07,-0.75,0.85,382.20,106.81,93.63
1777398932072,1570372,0.05,-0.77,0.76,198.36,21.00,46.45
1777398932082,1570382,0.04,-0.68,0.70,7.75,-68.36,-13.73
1777398932092,1570392,-0.09,-0.50,0.66,-172.61,-146.67,-75.87
1777398932102,1570402,-0.29,-0.17,0.66,-329.53,-202.82,-123.72
1777398932112,1570412,-0.44,-0.04,0.71,-451.48,-232.12,-143.92
1777398932122,1570422,-0.45,0.02,0.72,-539.12,-242.92,-140.14
1777398932132,1570432,-0.52,0.02,0.73,-609.01,-247.56,-120.36
1777398932142,1570442,-0.55,-0.07,0.61,-678.34,-253.05,-92.59
1777398932152,1570452,-0.41,-0.26,0.42,-733.83,-249.02,-64.88
1777398932162,1570462,-0.45,-0.54,0.28,-762.57,-226.56,-33.63
1777398932172,1570472,-0.26,-0.78,0.14,-757.14,-190.49,-8.30
1777398932182,1570482,-0.20,-1.07,0.02,-726.07,-144.47,11.72
1777398932192,1570492,0.19,-1.64,0.33,-650.02,-84.59,25.70
1777398932202,1570502,0.61,-1.87,0.98,-531.74,-4.70,12.88
1777398932212,1570512,0.59,-1.81,1.80,-386.66,66.96,-21.42
1777398932222,1570522,0.39,-1.32,2.19,-222.72,6.35,-100.16
1777398932242,1570542,-0.14,-0.54,1.59,101.81,-87.77,-70.25
1777398932262,1570562,-0.31,-0.27,0.60,332.70,-62.62,23.99
1777398932282,1570582,0.05,-1.05,0.89,583.37,45.90,100.95
1777398932292,1570592,0.10,-1.22,0.96,714.17,112.79,106.14
1777398932302,1570602,0.16,-1.27,1.03,833.07,181.34,99.24
1777398932312,1570612,0.15,-1.18,1.02,929.69,245.00,84.53
1777398932323,1570622,0.09,-1.03,1.14,994.32,293.33,63.23
1777398932332,1570632,0.06,-0.90,1.08,1025.45,316.04,37.29
1777398932342,1570642,0.10,-1.19,1.09,1021.55,320.01,10.07
1777398932352,1570652,-0.05,-0.42,0.52,971.74,289.61,-33.20
1777398932362,1570662,-0.11,-0.41,0.63,816.71,239.81,-45.84
1777398932372,1570672,-0.34,0.11,0.51,582.34,138.55,-66.04
1777398932382,1570682,-0.39,0.39,0.55,299.68,21.18,-74.22
1777398932392,1570692,-0.54,0.70,0.41,42.97,-91.92,-72.45
1777398932402,1570702,-0.69,1.00,0.31,-147.03,-167.97,-57.62
1777398932412,1570712,-0.67,0.96,0.31,-281.86,-216.13,-32.29
1777398932422,1570722,-0.52,0.84,0.21,-356.69,-235.96,-6.65
1777398932432,1570732,-0.42,0.65,0.19,-374.63,-213.44,19.90
1777398932442,1570742,-0.31,0.42,0.22,-362.67,-171.45,50.54
1777398932452,1570752,-0.38,0.18,0.28,-367.55,-133.54,79.28
1777398932462,1570762,-0.34,-0.05,0.33,-418.88,-119.69,100.22
1777398932472,1570772,-0.23,-0.54,0.30,-510.68,-124.57,112.67
1777398932482,1570782,-0.07,-0.87,0.33,-604.80,-129.88,107.67
1777398932492,1570792,-0.05,-1.13,0.42,-703.98,-142.76,82.82
1777398932502,1570802,0.03,-1.46,0.50,-792.79,-155.52,49.99
1777398932512,1570812,0.22,-1.78,0.66,-846.19,-157.17,12.21
1777398932522,1570822,0.30,-1.83,0.94,-841.49,-146.91,-34.30
1777398932532,1570832,0.24,-1.65,1.00,-784.36,-123.66,-74.10
1777398932542,1570842,0.18,-1.54,1.24,-694.40,-75.26,-96.07
1777398932552,1570852,-0.01,-1.16,1.56,-568.79,-35.40,-108.46
1777398932562,1570862,-0.03,-0.95,1.62,-428.04,-17.94,-99.67
1777398932582,1570882,0.03,-0.53,1.67,42.36,-25.70,-67.93
1777398932602,1570902,-0.05,-0.55,0.99,369.63,-2.14,-17.27
1777398932622,1570922,-0.03,-0.83,0.79,656.86,97.05,28.26
1777398932642,1570942,-0.04,-0.71,0.84,829.90,222.90,35.58
1777398932652,1570952,-0.04,-0.71,0.76,859.19,273.74,40.28
1777398932662,1570962,-0.11,-0.56,1.01,871.22,321.11,35.64
1777398932672,1570972,-0.09,-0.44,1.11,854.86,335.39,34.24
1777398932682,1570982,-0.15,-0.38,0.88,791.44,323.61,36.68
1777398932692,1570992,-0.07,-0.31,0.81,668.88,289.43,38.76
1777398932702,1571002,-0.02,-0.12,0.87,495.06,216.55,35.28
1777398932712,1571012,-0.05,-0.07,0.86,280.58,108.03,16.05
1777398932722,1571022,-0.14,-0.11,0.81,52.80,-12.82,-12.94
1777398932732,1571032,-0.22,0.06,0.65,-139.83,-114.69,-41.26
1777398932742,1571042,-0.35,0.30,0.56,-274.60,-173.52,-60.55
1777398932752,1571052,-0.35,0.33,0.53,-360.11,-197.88,-58.53
1777398932762,1571062,-0.35,0.18,0.51,-409.42,-200.26,-41.63
1777398932772,1571072,-0.48,0.14,0.57,-446.41,-191.10,-18.86
1777398932782,1571082,-0.21,-0.15,0.60,-502.14,-190.67,3.85
1777398932792,1571092,-0.05,-0.50,0.45,-566.59,-194.34,17.46
1777398932802,1571102,-0.03,-0.96,0.45,-613.53,-177.61,21.24
1777398932813,1571112,0.06,-1.40,0.92,-645.39,-160.28,-0.37
1777398932822,1571122,0.32,-1.63,1.23,-647.09,-149.11,-41.26
1777398932832,1571132,0.36,-1.82,1.45,-641.91,-159.12,-91.86
1777398932842,1571142,0.19,-1.51,1.52,-614.93,-168.15,-138.61
1777398932852,1571152,0.04,-1.30,1.58,-599.24,-154.48,-162.66
1777398932862,1571162,-0.07,-0.99,1.62,-573.24,-166.87,-176.88
1777398932872,1571172,-0.14,-0.52,1.56,-524.23,-185.79,-177.73
1777398932882,1571182,-0.19,-0.14,1.42,-436.65,-192.08,-164.00
1777398932892,1571192,-0.18,0.16,1.14,-300.23,-181.76,-128.42
1777398932902,1571202,-0.21,0.26,0.93,-122.86,-150.09,-74.22
1777398932912,1571212,-0.12,0.03,0.83,76.29,-22.34,46.75
1777398932932,1571232,0.27,-0.93,0.82,676.27,130.62,90.64
1777398932952,1571252,0.32,-1.26,0.96,887.70,260.07,48.58
1777398932972,1571272,0.27,-0.90,1.04,904.97,271.36,-3.60
1777398932982,1571282,0.09,-0.77,0.76,875.98,269.47,-19.17
1777398932992,1571292,0.03,-0.72,0.56,839.05,275.51,-32.59
1777398933002,1571302,0.03,-0.63,0.43,767.94,269.04,-57.68
1777398933012,1571312,0.07,-0.35,0.34,646.79,237.18,-85.63
1777398933023,1571322,0.01,-0.00,0.34,478.52,180.73,-107.36
1777398933032,1571332,-0.16,0.36,0.45,281.07,106.20,-115.17
1777398933042,1571342,-0.25,0.69,0.57,78.31,20.45,-114.50
1777398933052,1571352,-0.46,0.64,0.57,-101.50,-52.25,-92.41
1777398933062,1571362,-0.39,0.83,0.69,-233.09,-101.81,-61.89
1777398933072,1571372,-0.38,0.73,0.61,-309.45,-128.85,-19.04
1777398933082,1571382,-0.39,0.54,0.58,-363.04,-138.49,29.30
1777398933092,1571392,-0.30,0.15,0.52,-434.08,-151.79,66.35
1777398933102,1571402,-0.23,-0.32,0.52,-518.98,-168.09,84.41
1777398933112,1571412,-0.06,-0.76,0.76,-585.57,-177.19,83.01
1777398933122,1571422,0.12,-1.06,1.04,-628.54,-183.17,64.21
1777398933132,1571432,0.22,-1.20,1.20,-652.53,-191.28,30.82
1777398933142,1571442,0.29,-1.13,1.14,-655.46,-199.22,-2.93
1777398933152,1571452,0.15,-1.24,1.10,-644.90,-194.82,-26.79
1777398933162,1571462,0.07,-1.10,1.21,-640.08,-185.97,-42.54
1777398933172,1571472,0.15,-1.07,1.11,-647.46,-194.70,-51.15
1777398933182,1571482,0.18,-1.21,0.72,-639.71,-191.47,-60.18
1777398933192,1571492,0.21,-0.86,0.69,-583.37,-155.70,-72.81
1777398933202,1571502,0.12,-0.86,0.82,-493.65,-104.74,-79.77
1777398933212,1571512,0.04,-0.55,1.00,-389.22,-63.72,-76.29
1777398933222,1571522,0.13,-0.48,1.15,-276.06,-46.88,-58.47
1777398933232,1571532,0.13,-0.35,1.06,-138.98,-42.18,-33.81
1777398933242,1571542,0.06,-0.33,1.07,19.17,-26.37,-7.02
1777398933252,1571552,0.12,-0.45,0.98,187.32,-7.45,46.57
1777398933272,1571572,0.10,-0.86,0.67,570.13,90.45,81.36
1777398933292,1571592,0.23,-1.26,0.89,667.24,153.14,77.21
1777398933312,1571612,0.34,-1.16,1.18,717.77,185.55,23.19
1777398933332,1571632,0.15,-0.74,1.01,760.86,203.61,-38.45
1777398933342,1571642,0.07,-0.56,0.85,751.95,202.70,-59.57
1777398933352,1571652,0.05,-0.42,0.66,717.65,195.25,-74.77
1777398933362,1571662,-0.09,-0.30,0.49,646.30,177.12,-88.20
1777398933372,1571672,-0.24,-0.04,0.40,538.21,146.18,-97.78
1777398933382,1571682,-0.29,0.36,0.37,393.98,97.78,-102.66
1777398933392,1571692,-0.36,0.74,0.37,233.03,39.73,-96.56
1777398933402,1571702,-0.46,0.94,0.39,73.24,-17.15,-74.77
1777398933412,1571712,-0.46,1.01,0.39,-62.87,-61.52,-41.08
1777398933422,1571722,-0.37,0.88,0.36,-160.71,-88.07,-2.38
