host_time_ms,arduino_time_ms,ax,ay,az,gx,gy,gz
1777398910905,1530362,-0.01,-0.00,1.00,2.69,-4.76,-4.33
1777398910905,1530372,-0.01,-0.00,1.00,2.50,-4.64,-4.46
1777398910905,1530382,-0.01,-0.00,1.00,2.56,-4.64,-4.58
1777398910906,1530392,-0.01,-0.00,1.00,2.56,-4.76,-4.52
1777398910906,1530402,-0.01,-0.00,1.00,2.56,-4.70,-4.46
1777398910906,1530412,-0.00,-0.00,1.00,2.44,-4.64,-4.82
1777398910906,1530422,-0.00,-0.00,1.00,2.26,-4.58,-5.43
1777398910907,1530432,-0.00,-0.00,1.00,2.26,-4.70,-5.19
1777398910907,1530442,-0.00,-0.00,1.00,2.38,-4.70,-5.07
1777398910907,1530452,-0.00,-0.00,1.00,2.38,-4.70,-5.00
1777398910907,1530462,-0.01,-0.00,1.00,2.44,-4.70,-4.88
1777398910908,1530472,-0.00,-0.00,1.00,2.56,-4.76,-4.82
1777398910908,1530482,-0.01,-0.00,1.00,2.56,-4.70,-4.70
1777398910908,1530492,-0.00,-0.00,1.00,2.38,-4.70,-4.94
1777398910909,1530502,-0.00,-0.00,1.00,2.26,-4.64,-5.31
1777398910909,1530512,-0.00,-0.00,1.00,2.32,-4.64,-5.07
1777398910909,1530522,-0.01,-0.00,1.00,2.44,-4.76,-4.88
1777398910909,1530542,-0.01,-0.00,1.00,2.44,-4.64,-4.76
1777398910910,1530562,-0.00,-0.00,1.00,2.38,-4.70,-5.00
1777398910910,1530582,-0.00,-0.00,1.00,2.62,-4.76,-4.76
1777398910910,1530602,-0.00,-0.00,1.00,2.38,-4.64,-5.00
1777398910911,1530612,-0.00,-0.00,1.00,2.32,-4.64,-5.19
1777398910911,1530622,-0.00,-0.00,1.00,2.32,-4.70,-5.07
1777398910911,1530632,-0.00,-0.00,1.00,2.26,-4.70,-5.19
1777398910911,1530642,-0.00,-0.00,1.00,2.32,-4.70,-5.19
1777398910911,1530652,-0.00,-0.00,1.00,2.38,-4.64,-5.19
1777398910912,1530662,-0.01,-0.00,1.00,2.50,-4.64,-4.82
1777398910912,1530672,-0.01,-0.00,1.00,2.69,-4.70,-4.46
1777398910912,1530682,-0.00,-0.00,1.00,2.50,-4.58,-4.88
1777398910912,1530692,-0.00,-0.00,1.00,2.14,-4.70,-5.37
1777398910913,1530702,-0.01,-0.00,1.00,2.38,-4.70,-5.07
1777398910913,1530712,-0.00,-0.00,1.00,2.38,-4.70,-4.82
1777398910913,1530722,-0.01,-0.00,1.00,2.38,-4.70,-4.76
1777398910913,1530732,-0.01,-0.00,1.00,2.56,-4.70,-4.58
1777398910914,1530742,-0.01,-0.00,1.00,2.50,-4.70,-4.46
1777398910914,1530752,-0.01,-0.00,1.00,2.62,-4.64,-4.46
1777398910914,1530762,-0.01,-0.00,1.00,2.56,-4.70,-4.39
1777398910914,1530772,-0.01,-0.00,1.00,2.62,-4.70,-4.46
1777398910915,1530782,-0.01,-0.00,1.00,2.69,-4.70,-4.64
1777398910915,1530792,-0.01,-0.00,1.00,2.44,-4.58,-4.76
1777398910915,1530802,-0.00,-0.00,1.00,2.32,-4.58,-5.00
1777398910915,1530812,-0.00,-0.00,1.00,2.26,-4.64,-5.31
1777398910915,1530822,-0.00,-0.00,1.00,2.38,-4.70,-5.19
1777398910916,1530832,-0.00,-0.00,1.00,2.38,-4.70,-5.00
1777398910916,1530842,-0.01,-0.00,1.00,2.56,-4.64,-4.82
1777398910916,1530852,-0.01,-0.00,1.00,2.56,-4.64,-4.39
1777398910916,1530862,-0.00,-0.00,1.00,2.56,-4.64,-4.58
1777398910917,1530872,-0.00,-0.00,1.00,2.50,-4.76,-5.00
1777398910917,1530892,-0.00,-0.00,1.00,2.32,-4.64,-5.25
1777398910917,1530912,-0.01,-0.00,1.00,2.38,-4.70,-5.07
1777398910917,1530932,-0.01,-0.00,1.00,2.26,-4.70,-5.07
1777398910917,1530952,-0.01,-0.00,1.00,2.38,-4.70,-4.94
1777398910918,1530962,-0.01,-0.00,1.00,2.38,-4.76,-5.00
1777398910918,1530972,-0.00,-0.00,1.00,2.32,-4.64,-5.00
1777398910918,1530982,-0.00,-0.00,1.00,2.32,-4.64,-5.19
1777398910918,1530992,-0.01,-0.00,1.00,2.44,-4.70,-4.88
1777398910918,1531002,-0.01,-0.00,1.00,2.69,-4.64,-4.39
1777398910919,1531012,-0.01,-0.00,1.00,2.62,-4.70,-4.33
1777398910919,1531022,-0.01,-0.00,1.00,2.75,-4.70,-4.27
1777398910919,1531032,-0.01,-0.00,1.00,2.56,-4.64,-4.39
1777398910919,1531042,-0.01,-0.00,1.00,2.56,-4.70,-4.64
1777398910919,1531052,-0.01,-0.00,1.00,2.50,-4.76,-4.58
1777398910920,1531062,-0.01,-0.00,1.00,2.69,-4.76,-4.39
1777398910920,1531072,-0.01,-0.00,1.00,2.56,-4.70,-4.46
1777398910920,1531082,-0.01,-0.00,1.00,2.69,-4.64,-4.39
1777398910920,1531092,-0.01,-0.00,1.00,2.50,-4.64,-4.64
1777398910920,1531102,-0.01,-0.00,1.00,2.44,-4.70,-4.88
1777398910921,1531112,-0.01,-0.00,1.00,2.44,-4.70,-4.82
1777398910921,1531122,-0.01,-0.00,1.00,2.50,-4.70,-4.82
1777398910921,1531132,-0.01,-0.00,1.00,2.56,-4.70,-4.64
1777398910921,1531142,-0.01,-0.00,1.00,2.62,-4.76,-4.46
1777398910921,1531152,-0.00,-0.00,1.00,2.50,-4.70,-4.76
1777398910922,1531162,-0.01,-0.00,1.00,2.26,-4.76,-5.31
1777398910922,1531172,-0.00,-0.00,1.00,2.44,-4.64,-5.13
1777398910922,1531182,-0.00,-0.00,1.00,2.44,-4.70,-4.82
1777398910922,1531192,-0.01,-0.00,1.00,2.50,-4.64,-4.82
1777398910922,1531202,-0.01,-0.00,1.01,2.50,-4.70,-5.00
1777398910922,1531212,-0.00,-0.00,1.00,2.44,-4.76,-4.88
1777398910923,1531232,-0.01,-0.00,1.00,2.56,-4.76,-4.64
1777398910923,1531252,-0.01,-0.00,1.00,2.44,-4.76,-4.88
1777398910923,1531272,-0.00,-0.00,1.00,2.62,-4.70,-4.52
1777398910923,1531292,-0.00,-0.00,1.00,2.56,-4.76,-4.52
1777398910923,1531302,-0.01,-0.00,1.00,2.50,-4.70,-4.70
1777398910924,1531312,-0.01,-0.00,1.00,2.44,-4.70,-4.88
1777398910924,1531322,-0.01,-0.00,1.00,2.44,-4.70,-4.88
1777398910924,1531332,-0.00,-0.00,1.00,2.50,-4.76,-4.94
1777398910924,1531342,-0.00,-0.00,1.00,2.44,-4.70,-5.00
1777398910925,1531352,-0.00,-0.00,1.00,2.44,-4.70,-5.13
1777398910925,1531362,-0.00,-0.00,1.00,2.32,-4.70,-5.25
1777398910925,1531372,-0.00,-0.00,1.00,2.32,-4.58,-5.37
1777398910925,1531382,-0.01,-0.00,1.00,2.38,-4.70,-4.88
1777398910925,1531392,-0.01,-0.00,1.00,2.62,-4.70,-4.46
1777398910926,1531402,-0.01,-0.00,1.00,2.62,-4.64,-4.39
1777398910926,1531412,-0.01,-0.00,1.00,2.69,-4.70,-4.33
1777398910926,1531422,-0.00,-0.00,1.00,2.50,-4.70,-4.70
1777398910926,1531432,-0.00,-0.00,1.00,2.32,-4.64,-5.13
1777398910926,1531442,-0.00,-0.00,1.00,2.44,-4.64,-4.82
1777398910926,1531452,-0.01,-0.00,1.00,2.56,-4.70,-4.52
1777398910927,1531462,-0.01,-0.00,1.00,2.50,-4.70,-4.64
1777398910927,1531472,-0.00,-0.00,1.00,2.44,-4.76,-4.88
1777398910927,1531482,-0.00,-0.00,1.00,2.38,-4.76,-5.07
1777398910927,1531492,-0.00,-0.00,1.00,2.32,-4.70,-5.31
1777398910927,1531502,-0.00,-0.00,1.00,2.38,-4.58,-5.13
1777398910927,1531512,-0.01,-0.00,1.00,2.44,-4.64,-5.00
1777398910928,1531522,-0.01,-0.00,1.00,2.44,-4.76,-4.70
1777398910928,1531532,-0.01,-0.00,1.00,2.62,-4.70,-4.58
1777398910928,1531542,-0.01,-0.00,1.00,2.50,-4.70,-4.52
1777398910928,1531552,-0.01,-0.00,1.00,2.50,-4.76,-4.58
1777398910928,1531562,-0.01,-0.00,1.00,2.50,-4.70,-4.39
1777398910928,1531582,-0.00,-0.00,1.00,2.32,-4.70,-5.31
1777398910929,1531602,-0.01,-0.00,1.00,2.62,-4.64,-4.33
1777398910929,1531622,-0.01,-0.00,1.00,2.38,-4.64,-4.94
1777398910929,1531642,-0.01,-0.00,1.00,2.50,-4.70,-4.88
1777398910929,1531652,-0.00,-0.00,1.00,2.44,-4.64,-4.94
1777398910929,1531662,-0.00,-0.00,1.00,2.26,-4.64,-5.19
1777398910929,1531672,-0.01,-0.00,1.00,2.32,-4.64,-5.00
1777398910930,1531682,-0.01,-0.00,1.00,2.56,-4.70,-4.64
1777398910930,1531692,-0.01,-0.00,1.00,2.50,-4.64,-4.82
1777398910930,1531702,-0.01,-0.00,1.00,2.44,-4.70,-4.94
1777398910930,1531712,-0.00,-0.00,1.00,2.56,-4.70,-4.88
1777398910930,1531722,-0.01,-0.00,1.00,2.38,-4.64,-4.94
1777398910930,1531732,-0.01,-0.00,1.00,2.38,-4.70,-4.88
1777398910931,1531742,-0.01,-0.00,1.00,2.44,-4.64,-4.88
1777398910931,1531752,-0.01,-0.00,1.00,2.50,-4.64,-4.88
1777398910931,1531762,-0.01,-0.00,1.00,2.44,-4.64,-4.82
1777398910931,1531772,-0.01,-0.00,1.00,2.44,-4.76,-4.88
1777398910931,1531782,-0.01,-0.00,1.00,2.44,-4.64,-4.94
1777398910931,1531792,-0.01,-0.00,1.00,2.44,-4.70,-4.88
1777398910932,1531802,-0.01,-0.00,1.00,2.56,-4.64,-4.58
1777398910932,1531812,-0.01,-0.00,1.00,2.38,-4.64,-4.88
1777398910932,1531822,-0.00,-0.00,1.00,2.26,-4.64,-5.25
1777398910932,1531832,-0.00,-0.00,1.00,2.32,-4.64,-5.19
1777398910932,1531842,-0.00,-0.00,1.00,2.44,-4.64,-5.00
1777398910932,1531852,-0.01,-0.00,1.00,2.44,-4.76,-4.70
1777398910933,1531862,-0.01,-0.00,1.00,2.69,-4.76,-4.39
1777398910933,1531872,-0.01,-0.00,1.00,2.44,-4.70,-4.70
1777398910933,1531882,-0.00,-0.00,1.00,2.44,-4.52,-4.88
1777398910933,1531892,-0.00,-0.00,1.00,2.32,-4.70,-5.00
1777398910933,1531902,-0.00,-0.00,1.00,2.38,-4.58,-5.19
1777398910933,1531922,-0.01,-0.00,1.00,2.38,-4.70,-4.88
1777398910933,1531942,-0.00,-0.00,1.00,2.38,-4.64,-4.88
1777398910934,1531962,-0.00,-0.00,1.00,2.44,-4.76,-4.64
1777398910934,1531982,-0.00,-0.00,1.00,2.38,-4.70,-5.19
1777398910934,1531992,-0.00,-0.00,1.00,2.26,-4.58,-5.31
1777398910934,1532002,-0.00,-0.00,1.00,2.32,-4.58,-5.31
1777398910934,1532012,-0.00,-0.00,1.00,2.32,-4.64,-5.25
1777398910935,1532022,-0.01,-0.00,1.00,2.50,-4.64,-4.82
1777398910935,1532032,-0.01,-0.00,1.00,2.69,-4.70,-4.33
1777398910935,1532042,-0.00,-0.00,1.00,2.50,-4.64,-4.82
1777398910935,1532052,-0.00,-0.00,1.00,2.32,-4.64,-5.25
1777398910935,1532062,-0.01,-0.00,1.00,2.44,-4.70,-4.76
1777398910935,1532072,-0.01,-0.00,1.00,2.62,-4.70,-4.27
1777398910935,1532082,-0.00,-0.00,1.00,2.50,-4.70,-4.70
1777398910936,1532092,-0.00,-0.00,1.00,2.26,-4.70,-5.25
1777398910936,1532102,-0.01,-0.00,1.00,2.38,-4.70,-5.07
1777398910936,1532112,-0.00,-0.00,1.00,2.44,-4.70,-4.82
1777398910936,1532122,-0.01,-0.00,1.00,2.44,-4.70,-4.76
1777398910936,1532132,-0.00,-0.00,1.00,2.44,-4.64,-4.76
1777398910936,1532142,-0.01,-0.00,1.00,2.56,-4.70,-4.64
1777398910936,1532152,-0.01,-0.00,1.00,2.56,-4.70,-4.39
1777398910937,1532162,-0.01,-0.00,1.00,2.56,-4.64,-4.64
1777398910937,1532172,-0.01,-0.00,1.00,2.50,-4.70,-4.82
1777398910937,1532182,-0.00,-0.00,1.00,2.32,-4.64,-5.07
1777398910937,1532192,-0.00,-0.00,1.00,2.32,-4.64,-5.25
1777398910937,1532202,-0.01,-0.00,1.00,2.44,-4.70,-4.94
1777398910937,1532212,-0.01,-0.00,1.00,2.62,-4.64,-4.52
1777398910938,1532222,-0.00,-0.00,1.00,2.56,-4.70,-4.52
1777398910938,1532232,-0.01,-0.00,1.00,2.62,-4.64,-4.39
1777398910938,1532242,-0.01,-0.00,1.00,2.56,-4.64,-4.58
1777398910938,1532252,-0.01,-0.00,1.00,2.50,-4.64,-4.70
1777398910938,1532272,-0.01,-0.00,1.00,2.50,-4.70,-4.82
1777398910938,1532292,-0.01,-0.00,1.00,2.38,-4.58,-5.19
1777398910939,1532312,-0.00,-0.00,1.00,2.32,-4.64,-5.31
1777398910939,1532332,-0.00,-0.00,1.00,2.26,-4.58,-5.19
1777398910939,1532342,-0.00,-0.00,1.00,2.32,-4.70,-5.25
1777398910939,1532352,-0.01,-0.00,1.00,2.38,-4.76,-5.07
1777398910939,1532362,-0.00,-0.00,1.00,2.50,-4.70,-4.70
1777398910939,1532372,-0.00,-0.00,1.00,2.50,-4.64,-4.82
1777398910939,1532382,-0.01,-0.00,1.00,2.50,-4.64,-4.82
1777398910940,1532392,-0.00,-0.00,1.00,2.44,-4.70,-4.82
1777398910940,1532402,-0.00,-0.00,1.00,2.38,-4.70,-4.94
1777398910940,1532412,-0.00,-0.00,1.00,2.56,-4.70,-4.70
1777398910940,1532422,-0.00,-0.00,1.00,2.62,-4.76,-4.58
1777398910940,1532432,-0.01,-0.00,1.00,2.50,-4.70,-4.70
1777398910940,1532442,-0.01,-0.00,1.00,2.50,-4.64,-4.88
1777398910940,1532452,-0.00,-0.00,1.00,2.44,-4.70,-5.00
1777398910941,1532462,-0.01,-0.00,1.00,2.32,-4.58,-5.19
1777398910941,1532472,-0.00,-0.00,1.00,2.44,-4.70,-5.07
1777398910941,1532482,-0.00,-0.00,1.00,2.50,-4.70,-4.88
1777398910941,1532492,-0.01,-0.00,1.00,2.56,-4.70,-4.70
1777398910941,1532502,-0.01,-0.00,1.00,2.62,-4.70,-4.46
1777398910941,1532512,-0.01,-0.00,1.00,2.62,-4.76,-4.39
1777398910942,1532522,-0.01,-0.00,1.00,2.62,-4.76,-4.33
1777398910942,1532532,-0.01,-0.00,1.00,2.69,-4.76,-4.33
1777398910942,1532542,-0.01,-0.00,1.00,2.69,-4.76,-4.33
1777398910942,1532552,-0.00,-0.00,1.00,2.62,-4.70,-4.39
1777398910942,1532562,-0.01,-0.00,1.00,2.56,-4.64,-4.46
1777398910942,1532572,-0.00,-0.00,1.00,2.56,-4.58,-4.64
1777398910942,1532582,-0.01,-0.00,1.00,2.44,-4.64,-4.82
1777398910943,1532592,-0.01,-0.00,1.00,2.44,-4.70,-4.82
1777398910943,1532612,-0.01,-0.00,1.00,2.62,-4.70,-4.39
1777398910943,1532632,-0.01,-0.00,1.00,2.38,-4.70,-4.88
1777398910943,1532652,-0.00,-0.00,1.00,2.20,-4.58,-5.37
1777398910943,1532672,-0.01,-0.00,1.00,2.44,-4.70,-4.82
1777398910943,1532682,-0.01,-0.00,1.00,2.56,-4.70,-4.52
1777398910943,1532692,-0.01,-0.00,1.00,2.69,-4.70,-4.33
1777398910944,1532702,-0.01,-0.00,1.00,2.62,-4.70,-4.33
1777398910944,1532712,-0.01,-0.00,1.00,2.62,-4.82,-4.58
1777398910944,1532722,-0.01,-0.00,1.00,2.56,-4.70,-4.64
1777398910944,1532732,-0.01,-0.00,1.00,2.38,-4.70,-4.82
1777398910944,1532742,-0.01,-0.00,1.00,2.38,-4.64,-4.94
1777398910944,1532752,-0.01,-0.00,1.00,2.38,-4.64,-5.13
1777398910944,1532762,-0.01,-0.00,1.00,2.44,-4.70,-4.76
1777398910945,1532772,-0.01,-0.00,1.00,2.56,-4.64,-4.39
1777398910945,1532782,-0.01,-0.00,1.00,2.56,-4.70,-4.64
1777398910945,1532792,-0.01,-0.00,1.00,2.56,-4.64,-4.76
1777398910945,1532802,-0.00,-0.00,1.00,2.44,-4.64,-5.07
1777398910945,1532812,-0.00,-0.00,1.00,2.26,-4.70,-5.37
1777398910945,1532822,-0.01,-0.00,1.00,2.44,-4.64,-4.88
1777398910945,1532832,-0.01,-0.00,1.00,2.62,-4.76,-4.46
1777398910946,1532842,-0.01,-0.00,1.00,2.56,-4.70,-4.33
1777398910946,1532852,-0.01,-0.00,1.00,2.62,-4.70,-4.46
1777398910946,1532862,-0.01,-0.00,1.00,2.62,-4.70,-4.46
1777398910946,1532872,-0.01,-0.00,1.00,2.50,-4.70,-4.64
1777398910946,1532882,-0.01,-0.00,1.00,2.50,-4.64,-4.70
1777398910946,1532892,-0.00,-0.00,1.00,2.50,-4.70,-4.70
1777398910946,1532902,-0.01,-0.00,1.00,2.56,-4.64,-4.58
1777398910947,1532912,-0.01,-0.00,1.00,2.62,-4.64,-4.39
1777398910947,1532922,-0.01,-0.00,1.00,2.62,-4.70,-4.33
1777398910947,1532932,-0.01,-0.00,1.00,2.62,-4.70,-4.46
1777398910947,1532942,-0.00,-0.00,1.00,2.44,-4.70,-5.07
1777398910947,1532962,-0.00,-0.00,1.00,2.26,-4.64,-5.37
1777398910947,1532982,-0.01,-0.00,1.00,2.56,-4.64,-4.70
1777398910947,1533002,-0.01,-0.00,1.00,2.44,-4.64,-4.58
1777398910948,1533022,-0.01,-0.00,1.00,2.44,-4.58,-4.88
1777398910948,1533032,-0.00,-0.00,1.00,2.44,-4.64,-5.00
1777398910948,1533042,-0.00,-0.00,1.00,2.38,-4.58,-5.13
1777398910948,1533052,-0.01,-0.00,1.00,2.44,-4.64,-4.94
1777398910948,1533062,-0.01,-0.00,1.00,2.50,-4.64,-4.70
1777398910948,1533072,-0.00,-0.00,1.00,2.38,-4.64,-5.00
1777398910948,1533082,-0.00,-0.00,1.00,2.26,-4.58,-5.25
1777398910949,1533092,-0.01,-0.00,1.00,2.44,-4.70,-5.00
1777398910949,1533102,-0.01,-0.00,1.00,2.56,-4.70,-4.52
1777398910949,1533112,-0.01,-0.00,1.00,2.69,-4.70,-4.46
1777398910949,1533122,-0.01,-0.00,1.00,2.62,-4.76,-4.39
1777398910949,1533132,-0.00,-0.00,1.00,2.38,-4.64,-4.82
1777398910949,1533142,-0.00,-0.00,1.00,2.26,-4.64,-5.25
1777398910949,1533152,-0.00,-0.00,1.00,2.38,-4.64,-5.13
1777398910949,1533162,-0.01,-0.00,1.00,2.44,-4.64,-4.88
1777398910950,1533172,-0.01,-0.00,1.00,2.38,-4.70,-4.88
1777398910950,1533182,-0.00,-0.00,1.00,2.44,-4.76,-4.94
1777398910950,1533192,-0.00,-0.00,1.00,2.44,-4.70,-4.88
1777398910950,1533202,-0.00,-0.00,1.00,2.44,-4.64,-4.82
1777398910950,1533212,-0.01,-0.00,1.00,2.44,-4.70,-4.88
1777398910950,1533222,-0.00,-0.00,1.00,2.56,-4.70,-4.82
1777398910950,1533232,-0.01,-0.00,1.00,2.62,-4.70,-4.70
1777398910950,1533242,-0.01,-0.00,1.00,2.62,-4.70,-4.46
1777398910951,1533252,-0.00,-0.00,1.00,2.50,-4.70,-4.76
1777398910951,1533262,-0.00,-0.00,1.00,2.32,-4.64,-5.25
1777398910951,1533272,-0.00,-0.00,1.00,2.38,-4.70,-5.00
1777398910951,1533282,-0.00,-0.00,1.00,2.44,-4.64,-4.88
1777398910951,1533302,-0.01,-0.00,1.00,2.38,-4.70,-4.76
1777398910951,1533322,-0.00,-0.00,1.00,2.50,-4.64,-4.82
1777398910951,1533342,-0.01,-0.00,1.00,2.38,-4.64,-4.88
1777398910952,1533362,-0.01,-0.00,1.00,2.38,-4.64,-5.13
1777398910952,1533372,-0.00,-0.00,1.00,2.32,-4.64,-5.25
1777398910952,1533382,-0.01,-0.00,1.00,2.50,-4.70,-4.82
1777398910952,1533392,-0.01,-0.00,1.00,2.62,-4.76,-4.39
1777398910952,1533402,-0.01,-0.00,1.00,2.62,-4.70,-4.39
1777398910952,1533412,-0.01,-0.00,1.00,2.62,-4.64,-4.33
1777398910952,1533422,-0.01,-0.00,1.00,2.62,-4.82,-4.27
1777398910952,1533432,-0.01,-0.00,1.00,2.56,-4.70,-4.39
1777398910953,1533442,-0.01,-0.00,1.00,2.62,-4.70,-4.58
1777398910953,1533452,-0.01,-0.00,1.00,2.44,-4.70,-4.82
1777398910953,1533462,-0.01,-0.00,1.00,2.44,-4.76,-4.76
1777398910953,1533472,-0.00,-0.00,1.00,2.56,-4.70,-4.70
1777398910953,1533482,-0.01,-0.00,1.00,2.56,-4.64,-4.88
1777398910953,1533492,-0.00,-0.00,1.00,2.44,-4.64,-4.94
1777398910953,1533502,-0.00,-0.00,1.00,2.32,-4.64,-5.07
1777398910954,1533512,-0.00,-0.00,1.00,2.32,-4.64,-5.31
1777398910954,1533522,-0.01,-0.00,1.00,2.44,-4.64,-4.88
1777398910954,1533532,-0.01,-0.00,1.00,2.69,-4.70,-4.39
1777398910954,1533542,-0.01,-0.00,1.00,2.56,-4.70,-4.64
1777398910954,1533552,-0.01,-0.00,1.00,2.44,-4.64,-4.94
1777398910954,1533562,-0.01,-0.00,1.00,2.50,-4.70,-4.88
1777398910955,1533572,-0.01,-0.00,1.00,2.50,-4.76,-4.82
1777398910955,1533582,-0.01,-0.00,1.00,2.38,-4.58,-4.88
1777398910955,1533592,-0.00,-0.00,1.00,2.26,-4.64,-5.13
1777398910955,1533602,-0.01,-0.00,1.00,2.32,-4.64,-5.13
1777398910955,1533612,-0.00,-0.00,1.00,2.32,-4.70,-5.25
1777398910955,1533622,-0.01,-0.00,1.00,2.38,-4.58,-5.00
1777398910955,1533632,-0.01,-0.00,1.00,2.44,-4.70,-4.88
1777398910955,1533652,-0.00,-0.00,1.00,2.44,-4.70,-4.76
1777398910956,1533672,-0.00,-0.00,1.00,2.50,-4.64,-4.82
1777398910956,1533692,-0.00,-0.00,1.00,2.26,-4.70,-5.31
1777398910956,1533702,-0.00,-0.00,1.00,2.26,-4.70,-5.37
1777398910956,1533712,-0.01,-0.00,1.00,2.38,-4.64,-5.07
1777398910956,1533722,-0.01,-0.00,1.00,2.56,-4.58,-4.76
1777398910956,1533732,-0.00,-0.00,1.00,2.38,-4.58,-5.00
1777398910956,1533742,-0.00,-0.00,1.00,2.38,-4.52,-5.25
1777398910957,1533752,-0.01,-0.00,1.00,2.38,-4.64,-5.07
1777398910957,1533762,-0.01,-0.00,1.00,2.50,-4.64,-4.82
1777398910957,1533772,-0.00,-0.00,1.00,2.44,-4.76,-5.07
1777398910957,1533782,-0.00,-0.00,1.00,2.26,-4.70,-5.25
1777398910957,1533792,-0.00,-0.00,1.00,2.38,-4.70,-5.19
1777398910957,1533802,-0.00,-0.00,1.00,2.38,-4.70,-5.07
1777398910957,1533812,-0.00,-0.00,1.00,2.26,-4.64,-5.25
1777398910957,1533822,-0.00,-0.00,1.00,2.26,-4.58,-5.43
1777398910958,1533832,-0.01,-0.00,1.00,2.32,-4.64,-5.19
1777398910958,1533842,-0.01,-0.00,1.00,2.44,-4.64,-4.76
1777398910958,1533852,-0.00,-0.00,1.00,2.56,-4.70,-4.64
1777398910958,1533862,-0.01,-0.00,1.00,2.50,-4.70,-4.58
1777398910958,1533872,-0.01,-0.00,1.00,2.50,-4.64,-4.76
1777398910958,1533882,-0.01,-0.00,1.00,2.38,-4.70,-5.00
1777398910958,1533892,-0.01,-0.00,1.00,2.44,-4.58,-4.76
1777398910958,1533902,-0.01,-0.00,1.00,2.50,-4.64,-4.70
1777398910959,1533912,-0.00,-0.00,1.00,2.44,-4.64,-4.88
1777398910959,1533922,-0.00,-0.00,1.00,2.32,-4.64,-5.13
1777398910959,1533932,-0.00,-0.00,1.00,2.32,-4.58,-5.31
1777398910959,1533942,-0.00,-0.00,1.00,2.26,-4.58,-5.37
1777398910959,1533952,-0.01,-0.00,1.00,2.38,-4.70,-4.88
1777398910959,1533962,-0.01,-0.00,1.00,2.62,-4.64,-4.33
1777398910959,1533972,-0.01,-0.00,1.00,2.50,-4.64,-4.58
1777398910959,1533992,-0.00,-0.00,1.00,2.44,-4.64,-4.94
1777398910960,1534012,-0.01,-0.00,1.00,2.62,-4.70,-4.39
1777398910960,1534032,-0.00,-0.00,1.00,2.44,-4.58,-4.94
1777398910960,1534052,-0.01,-0.00,1.00,2.38,-4.70,-5.13
1777398910960,1534062,-0.01,-0.00,1.00,2.26,-4.58,-5.13
1777398910960,1534072,-0.00,-0.00,1.00,2.32,-4.70,-5.19
1777398910960,1534082,-0.00,-0.00,1.00,2.44,-4.64,-5.07
1777398910960,1534092,-0.00,-0.00,1.00,2.50,-4.70,-4.82
1777398910960,1534102,-0.01,-0.00,1.00,2.50,-4.76,-4.64
1777398910960,1534112,-0.01,-0.00,1.00,2.69,-4.70,-4.39
1777398910961,1534122,-0.00,-0.00,1.00,2.50,-4.70,-4.88
1777398910961,1534132,-0.00,-0.00,1.00,2.26,-4.64,-5.31
1777398910961,1534142,-0.01,-0.00,1.00,2.38,-4.58,-5.19
1777398910961,1534152,-0.00,-0.00,1.00,2.38,-4.58,-4.88
1777398910961,1534162,-0.01,-0.00,1.00,2.44,-4.64,-4.94
1777398910961,1534172,-0.00,-0.00,1.00,2.44,-4.70,-4.88
1777398910961,1534182,-0.00,-0.00,1.00,2.38,-4.70,-5.00
1777398910962,1534192,-0.01,-0.00,1.00,2.32,-4.58,-5.13
1777398910962,1534202,-0.01,-0.00,1.00,2.38,-4.64,-4.94
1777398910962,1534212,-0.01,-0.00,1.00,2.56,-4.64,-4.64
1777398910962,1534222,-0.01,-0.00,1.00,2.62,-4.70,-4.64
1777398910962,1534232,-0.01,-0.00,1.00,2.56,-4.64,-4.52
1777398910962,1534242,-0.01,-0.00,1.00,2.44,-4.64,-4.82
1777398910962,1534252,-0.00,-0.00,1.00,2.38,-4.64,-5.19
1777398910962,1534262,-0.01,-0.00,1.00,2.44,-4.70,-4.76
1777398910963,1534272,-0.01,-0.00,1.00,2.62,-4.70,-4.33
1777398910963,1534282,-0.01,-0.00,1.00,2.56,-4.64,-4.64
1777398910963,1534292,-0.01,-0.00,1.00,2.44,-4.64,-4.88
1777398910963,1534302,-0.00,-0.00,1.00,2.32,-4.52,-4.94
1777398910963,1534312,-0.01,-0.00,1.00,2.44,-4.58,-4.88
1777398910963,1534322,-0.01,-0.00,1.00,2.50,-4.64,-4.39
1777398910963,1534342,-0.01,-0.00,1.00,2.50,-4.58,-4.58
1777398910963,1534362,-0.01,-0.00,1.00,2.62,-4.70,-4.46
1777398910964,1534382,-0.00,-0.00,1.00,2.50,-4.70,-4.94
1777398910964,1534392,-0.00,-0.00,1.00,2.44,-4.70,-4.88
1777398910964,1534402,-0.01,-0.00,1.00,2.44,-4.58,-4.94
1777398910964,1534412,-0.00,-0.00,1.00,2.32,-4.64,-5.13
1777398910964,1534422,-0.00,-0.00,1.00,2.26,-4.64,-5.37
1777398910964,1534432,-0.00,-0.00,1.00,2.32,-4.70,-5.31
1777398910964,1534442,-0.00,-0.00,1.00,2.38,-4.70,-5.13
1777398910964,1534452,-0.00,-0.00,1.00,2.38,-4.64,-5.25
1777398910965,1534462,-0.00,-0.00,1.00,2.32,-4.64,-5.37
1777398910965,1534472,-0.00,-0.00,1.00,2.32,-4.64,-5.25
1777398910965,1534482,-0.00,-0.00,1.00,2.38,-4.64,-5.13
1777398910965,1534492,-0.00,-0.00,1.00,2.38,-4.64,-5.25
1777398910965,1534502,-0.00,-0.00,1.00,2.32,-4.64,-5.25
1777398910965,1534512,-0.01,-0.00,1.00,2.44,-4.64,-4.88
1777398910965,1534522,-0.01,-0.00,1.00,2.62,-4.76,-4.39
1777398910965,1534532,-0.01,-0.00,1.00,2.69,-4.70,-4.39
1777398910965,1534542,-0.01,-0.00,1.00,2.62,-4.70,-4.46
1777398910966,1534552,-0.01,-0.00,1.00,2.62,-4.70,-4.39
1777398910966,1534562,-0.01,-0.00,1.00,2.69,-4.76,-4.27
1777398910966,1534572,-0.01,-0.00,1.00,2.56,-4.64,-4.33
1777398910966,1534582,-0.01,-0.00,1.00,2.56,-4.70,-4.33
1777398910966,1534592,-0.01,-0.00,1.00,2.56,-4.70,-4.52
1777398910966,1534602,-0.01,-0.00,1.00,2.50,-4.76,-4.70
1777398910966,1534612,-0.00,-0.00,1.00,2.44,-4.58,-4.94
1777398910966,1534622,-0.00,-0.00,1.00,2.26,-4.64,-5.31
1777398910967,1534632,-0.01,-0.00,1.00,2.32,-4.70,-5.00
1777398910967,1534642,-0.01,-0.00,1.00,2.44,-4.64,-4.70
1777398910967,1534652,-0.01,-0.00,1.00,2.44,-4.64,-4.76
1777398910967,1534662,-0.01,-0.00,1.00,2.44,-4.70,-4.82
1777398910967,1534682,-0.00,-0.00,1.00,2.32,-4.58,-5.00
1777398910967,1534702,-0.00,-0.00,1.00,2.32,-4.58,-4.88
1777398910967,1534722,-0.01,-0.00,1.00,2.44,-4.64,-4.82
1777398910967,1534742,-0.00,-0.00,1.00,2.38,-4.70,-4.94
1777398910968,1534752,-0.00,-0.00,1.00,2.38,-4.58,-4.88
1777398910968,1534762,-0.01,-0.00,1.00,2.44,-4.64,-4.76
1777398910968,1534772,-0.00,-0.00,1.00,2.38,-4.76,-4.64
1777398910968,1534782,-0.01,-0.00,1.00,2.38,-4.64,-4.76
1777398910968,1534792,-0.01,-0.00,1.00,2.38,-4.64,-4.88
1777398910968,1534802,-0.01,-0.00,1.00,2.38,-4.64,-4.94
1777398910968,1534812,-0.01,-0.00,1.00,2.26,-4.64,-5.07
1777398910968,1534822,-0.00,-0.00,1.00,2.20,-4.64,-5.19
1777398910968,1534832,-0.00,-0.00,1.00,2.20,-4.70,-5.43
1777398910969,1534842,-0.01,-0.00,1.00,2.32,-4.70,-5.00
1777398910969,1534852,-0.00,-0.00,1.00,2.44,-4.70,-4.39
1777398910969,1534862,-0.01,-0.00,1.00,2.69,-4.64,-4.33
1777398910969,1534872,-0.01,-0.00,1.00,2.56,-4.64,-4.39
1777398910969,1534882,-0.01,-0.01,1.00,2.56,-4.70,-4.39
1777398910969,1534892,-0.01,-0.01,1.00,2.56,-4.70,-4.52
1777398910969,1534902,-0.01,-0.00,1.00,2.56,-4.64,-4.64
1777398910969,1534912,-0.00,-0.00,1.00,2.50,-4.70,-4.88
1777398910970,1534922,-0.00,-0.00,1.00,2.38,-4.70,-5.07
1777398910970,1534932,-0.00,-0.00,1.00,2.20,-4.64,-5.31
1777398910970,1534942,-0.01,-0.00,0.99,2.50,-4.64,-4.82
1777398910970,1534952,-0.01,-0.00,1.00,2.69,-4.70,-4.33
1777398910970,1534962,-0.00,-0.00,1.00,2.56,-4.64,-4.58
1777398910970,1534972,-0.01,-0.00,1.00,2.44,-4.76,-4.88
1777398910970,1534982,-0.01,-0.00,1.00,2.26,-4.64,-5.13
1777398910970,1534992,-0.01,-0.00,1.00,2.26,-4.58,-5.31
1777398910971,1535002,-0.01,-0.01,1.00,2.44,-4.64,-4.94
1777398910971,1535012,-0.01,-0.00,1.00,2.62,-4.76,-4.76
1777398910971,1535032,-0.01,-0.00,1.00,2.38,-4.70,-4.82
1777398910971,1535052,-0.01,-0.00,1.00,2.62,-4.70,-4.52
1777398910971,1535072,-0.00,-0.00,1.00,2.38,-4.70,-4.88
1777398910971,1535082,-0.01,-0.00,1.00,2.26,-4.58,-5.31
1777398910971,1535092,-0.01,-0.00,1.00,2.50,-4.58,-5.13
1777398910971,1535102,-0.00,-0.00,1.00,2.50,-4.76,-4.76
1777398910972,1535112,-0.00,-0.00,1.00,2.56,-4.76,-4.52
1777398910972,1535122,-0.01,-0.00,1.00,2.69,-4.70,-4.39
1777398910972,1535132,-0.00,-0.00,1.00,2.56,-4.76,-4.52
1777398910972,1535142,-0.01,-0.00,1.00,2.50,-4.64,-4.70
1777398910972,1535152,-0.01,-0.00,1.00,2.56,-4.70,-4.70
1777398910972,1535162,-0.01,-0.00,1.00,2.56,-4.64,-4.58
1777398910972,1535172,-0.01,-0.00,1.00,2.50,-4.64,-4.76
1777398910972,1535182,-0.00,-0.00,1.00,2.44,-4.64,-5.00
1777398910973,1535192,-0.01,-0.00,1.00,2.44,-4.70,-4.82
1777398910973,1535202,-0.01,-0.00,1.00,2.50,-4.70,-4.58
1777398910973,1535212,-0.00,-0.00,1.00,2.38,-4.70,-4.94
1777398910973,1535222,-0.00,-0.00,1.00,2.32,-4.70,-5.25
1777398910973,1535232,-0.01,-0.00,1.00,2.38,-4.64,-5.07
1777398910973,1535242,-0.01,-0.00,1.00,2.56,-4.76,-4.70
1777398910973,1535252,-0.01,-0.00,1.00,2.44,-4.70,-4.82
1777398910973,1535262,-0.00,-0.00,1.00,2.38,-4.76,-4.88
1777398910974,1535272,-0.01,-0.00,1.00,2.56,-4.64,-4.76
1777398910974,1535282,-0.00,-0.00,1.00,2.56,-4.70,-4.52
1777398910974,1535292,-0.00,-0.00,1.00,2.56,-4.76,-4.52
1777398910974,1535302,-0.01,-0.00,1.00,2.56,-4.64,-4.46
1777398910974,1535312,-0.01,-0.00,1.00,2.50,-4.70,-4.76
1777398910974,1535322,-0.01,-0.00,1.00,2.32,-4.70,-5.13
1777398910974,1535332,-0.01,-0.00,1.00,2.38,-4.70,-5.00
1777398910974,1535342,-0.01,-0.00,1.00,2.38,-4.64,-4.94
1777398910974,1535352,-0.00,-0.00,1.00,2.44,-4.70,-4.70
1777398910975,1535372,-0.00,-0.00,1.00,2.62,-4.70,-4.46
1777398910975,1535392,-0.00,-0.00,1.00,2.32,-4.64,-5.13
1777398910975,1535412,-0.01,-0.00,1.00,2.62,-4.70,-4.39
1777398910975,1535432,-0.00,-0.00,1.00,2.20,-4.64,-5.31
1777398910975,1535442,-0.01,-0.00,1.00,2.44,-4.76,-5.00
1777398910975,1535452,-0.01,-0.00,1.00,2.56,-4.70,-4.58
1777398910975,1535462,-0.01,-0.00,1.00,2.56,-4.64,-4.52
1777398910975,1535472,-0.01,-0.00,1.00,2.62,-4.64,-4.52
1777398910975,1535482,-0.01,-0.00,1.00,2.50,-4.76,-4.82
1777398910976,1535492,-0.01,-0.00,1.00,2.44,-4.76,-4.94
1777398910976,1535502,-0.00,-0.00,1.00,2.50,-4.70,-4.82
1777398910976,1535512,-0.01,-0.00,1.00,2.44,-4.70,-4.64
1777398910976,1535522,-0.00,-0.00,1.00,2.44,-4.76,-4.70
1777398910976,1535532,-0.00,-0.00,1.00,2.44,-4.64,-4.88
1777398910976,1535542,-0.01,-0.00,1.00,2.50,-4.76,-4.82
1777398910976,1535552,-0.01,-0.00,1.00,2.56,-4.64,-4.58
1777398910976,1535562,-0.01,-0.00,1.00,2.56,-4.82,-4.64
1777398910976,1535572,-0.01,-0.00,1.00,2.50,-4.76,-4.82
1777398910977,1535582,-0.01,-0.00,1.00,2.50,-4.64,-4.70
1777398910977,1535592,-0.01,-0.00,1.00,2.56,-4.70,-4.64
1777398910977,1535602,-0.01,-0.00,1.00,2.62,-4.70,-4.46
1777398910977,1535612,-0.01,-0.00,1.00,2.69,-4.70,-4.46
1777398910977,1535622,-0.00,-0.00,1.00,2.56,-4.70,-4.76
1777398910977,1535632,-0.00,-0.00,1.00,2.32,-4.64,-5.13
1777398910977,1535642,-0.01,-0.00,1.00,2.44,-4.70,-5.00
1777398910977,1535652,-0.01,-0.00,1.00,2.50,-4.70,-4.82
1777398910977,1535662,-0.00,-0.00,1.00,2.38,-4.58,-5.00
1777398910978,1535672,-0.00,-0.00,1.00,2.26,-4.70,-5.25
1777398910978,1535682,-0.01,-0.00,1.00,2.32,-4.70,-5.07
1777398910978,1535692,-0.01,-0.00,1.00,2.44,-4.64,-4.82
1777398910978,1535702,-0.01,-0.00,1.00,2.50,-4.64,-4.33
1777398910978,1535722,-0.00,-0.00,1.00,2.26,-4.70,-5.31
1777398910978,1535742,-0.01,-0.00,1.00,2.62,-4.64,-4.39
1777398910978,1535762,-0.01,-0.00,1.00,2.56,-4.64,-4.82
1777398910978,1535772,-0.00,-0.00,1.00,2.50,-4.64,-4.94
1777398910978,1535782,-0.01,-0.00,1.00,2.38,-4.70,-5.07
1777398910979,1535792,-0.01,-0.00,1.00,2.44,-4.70,-4.82
1777398910979,1535802,-0.01,-0.00,1.00,2.56,-4.64,-4.46
1777398910979,1535812,-0.00,-0.00,1.00,2.38,-4.64,-4.76
1777398910979,1535822,-0.00,-0.00,1.00,2.26,-4.64,-5.25
1777398910979,1535832,-0.00,-0.00,1.00,2.32,-4.64,-5.19
1777398910979,1535842,-0.01,-0.00,1.00,2.32,-4.70,-5.19
1777398910979,1535852,-0.00,-0.00,1.00,2.32,-4.70,-5.00
1777398910980,1535862,-0.01,-0.00,1.00,2.44,-4.58,-4.88
1777398910980,1535872,-0.00,-0.00,1.00,2.38,-4.64,-5.13
1777398910980,1535882,-0.00,-0.00,1.00,2.26,-4.70,-5.43
1777398910980,1535892,-0.00,-0.00,1.00,2.32,-4.64,-5.19
1777398910980,1535902,-0.01,-0.00,1.00,2.38,-4.70,-5.00
1777398910980,1535912,-0.01,-0.00,1.00,2.50,-4.70,-4.70
1777398910980,1535922,-0.01,-0.00,1.00,2.62,-4.64,-4.27
1777398910980,1535932,-0.00,-0.00,1.00,2.44,-4.70,-4.82
1777398910980,1535942,-0.01,-0.00,1.00,2.32,-4.64,-5.31
1777398910981,1535952,-0.01,-0.00,1.00,2.38,-4.70,-5.13
1777398910981,1535962,-0.01,-0.00,1.00,2.50,-4.76,-4.94
1777398910981,1535972,-0.00,-0.00,1.00,2.50,-4.76,-4.88
1777398910981,1535982,-0.00,-0.00,1.00,2.44,-4.64,-4.88
1777398910981,1535992,-0.01,-0.00,1.00,2.62,-4.70,-4.70
1777398910981,1536002,-0.01,-0.00,1.00,2.75,-4.70,-4.39
1777398910981,1536012,-0.01,-0.00,1.00,2.56,-4.76,-4.70
1777398910981,1536022,-0.01,-0.00,1.00,2.38,-4.70,-5.13
1777398910981,1536032,-0.00,-0.00,1.00,2.32,-4.70,-5.00
1777398910982,1536042,-0.00,-0.00,1.00,2.44,-4.76,-4.58
1777398910982,1536062,-0.01,-0.00,1.00,2.50,-4.64,-4.88
1777398910982,1536082,-0.01,-0.00,1.00,2.38,-4.70,-5.13
1777398910982,1536102,-0.00,-0.00,1.00,2.50,-4.70,-4.82
1777398910982,1536122,-0.00,-0.00,1.00,2.44,-4.64,-5.13
1777398910982,1536132,-0.01,-0.00,1.00,2.26,-4.64,-5.25
1777398910982,1536142,-0.01,-0.00,1.00,2.38,-4.64,-5.13
1777398910982,1536152,-0.00,-0.00,1.00,2.44,-4.70,-5.07
1777398910982,1536162,-0.01,-0.00,1.00,2.38,-4.70,-4.94
1777398910983,1536172,-0.00,-0.00,1.00,2.38,-4.58,-4.82
1777398910983,1536182,-0.00,-0.00,1.00,2.44,-4.64,-4.82
1777398910983,1536192,-0.01,-0.00,1.00,2.38,-4.64,-4.88
1777398910983,1536202,-0.01,-0.00,1.00,2.38,-4.70,-4.82
1777398910983,1536212,-0.01,-0.00,1.00,2.38,-4.64,-4.82
1777398910983,1536222,-0.01,-0.00,1.00,2.38,-4.64,-5.13
1777398910983,1536232,-0.00,-0.00,1.00,2.32,-4.58,-5.31
1777398910983,1536242,-0.01,-0.00,1.00,2.38,-4.64,-5.07
1777398910983,1536252,-0.01,-0.00,1.00,2.44,-4.58,-4.82
1777398910984,1536262,-0.01,-0.00,1.00,2.50,-4.58,-4.76
1777398910984,1536272,-0.01,-0.00,1.00,2.44,-4.70,-4.82
1777398910984,1536282,-0.00,-0.00,1.00,2.38,-4.64,-5.13
1777398910984,1536292,-0.00,-0.00,1.00,2.26,-4.64,-5.25
1777398910984,1536302,-0.00,-0.00,1.00,2.32,-4.58,-5.31
1777398910984,1536312,-0.00,-0.00,1.00,2.20,-4.58,-5.31
1777398910984,1536322,-0.00,-0.00,1.00,2.32,-4.64,-5.25
1777398910984,1536332,-0.01,-0.00,1.00,2.32,-4.58,-5.19
1777398910984,1536342,-0.01,-0.00,1.00,2.44,-4.64,-5.07
1777398910984,1536352,-0.00,-0.00,1.00,2.38,-4.70,-4.82
1777398910985,1536362,-0.01,-0.00,1.00,2.50,-4.70,-4.70
1777398910985,1536372,-0.01,-0.00,1.00,2.56,-4.70,-4.46
1777398910985,1536382,-0.00,-0.00,1.00,2.38,-4.64,-4.88
1777398910985,1536402,-0.01,-0.00,1.00,2.44,-4.64,-4.76
1777398910985,1536422,-0.00,-0.00,1.00,2.26,-4.64,-5.37
1777398910985,1536442,-0.00,-0.00,1.00,2.32,-4.64,-5.31
1777398910985,1536462,-0.01,-0.00,1.00,2.44,-4.64,-4.52
1777398910985,1536472,-0.01,-0.00,1.00,2.56,-4.64,-4.46
1777398910985,1536482,-0.01,-0.00,1.00,2.62,-4.58,-4.46
1777398910986,1536492,-0.00,-0.00,1.00,2.50,-4.64,-4.88
1777398910986,1536502,-0.00,-0.00,1.00,2.26,-4.58,-5.37
1777398910986,1536512,-0.00,-0.00,1.00,2.32,-4.76,-5.19
1777398910986,1536522,-0.00,-0.00,1.00,2.38,-4.64,-5.07
1777398910986,1536532,-0.00,-0.00,1.00,2.38,-4.58,-5.13
1777398910986,1536542,-0.00,-0.00,1.00,2.38,-4.58,-4.94
1777398910986,1536552,-0.01,-0.00,1.00,2.44,-4.58,-4.88
1777398910986,1536562,-0.00,-0.00,1.00,2.50,-4.70,-4.70
1777398910986,1536572,-0.00,-0.00,1.00,2.38,-4.64,-5.00
1777398910986,1536582,-0.00,-0.00,1.00,2.32,-4.58,-5.31
1777398910987,1536592,-0.01,-0.00,1.00,2.32,-4.52,-5.13
1777398910987,1536602,-0.01,-0.00,1.00,2.44,-4.64,-4.82
1777398910987,1536612,-0.01,-0.00,1.00,2.56,-4.70,-4.64
1777398910987,1536622,-0.01,-0.00,1.00,2.69,-4.70,-4.33
1777398910987,1536632,-0.01,-0.00,1.00,2.62,-4.64,-4.39
1777398910987,1536642,-0.01,-0.00,1.00,2.69,-4.76,-4.52
1777398910987,1536652,-0.01,-0.00,1.00,2.56,-4.70,-4.58
1777398910987,1536662,-0.00,-0.00,1.00,2.50,-4.58,-4.70
1777398910987,1536672,-0.01,-0.00,1.00,2.44,-4.58,-4.82
1777398910988,1536682,-0.01,-0.00,1.00,2.44,-4.64,-5.07
1777398910988,1536692,-0.01,-0.00,1.00,2.50,-4.64,-4.88
1777398910988,1536702,-0.00,-0.00,1.00,2.38,-4.58,-4.82
1777398910988,1536712,-0.00,-0.00,1.00,2.50,-4.58,-4.82
1777398910988,1536722,-0.00,-0.00,1.00,2.44,-4.70,-4.82
1777398910988,1536732,-0.01,-0.00,1.00,2.56,-4.70,-4.27
1777398910988,1536752,-0.01,-0.00,1.00,2.32,-4.70,-5.07
1777398910988,1536772,-0.00,-0.00,1.00,2.38,-4.70,-4.88
1777398910988,1536792,-0.01,-0.00,1.00,2.44,-4.64,-4.88
1777398910989,1536812,-0.00,-0.00,1.00,2.38,-4.58,-5.19
1777398910989,1536822,-0.00,-0.00,1.00,2.44,-4.64,-5.00
1777398910989,1536832,-0.00,-0.00,1.00,2.44,-4.70,-4.76
1777398910989,1536842,-0.01,-0.00,1.00,2.44,-4.64,-4.64
1777398910989,1536852,-0.01,-0.00,1.00,2.69,-4.70,-4.33
1777398910989,1536862,-0.01,-0.00,1.00,2.56,-4.64,-4.64
1777398910989,1536872,-0.00,-0.00,1.00,2.44,-4.64,-5.00
1777398910989,1536882,-0.01,-0.00,1.00,2.62,-4.70,-4.76
1777398910989,1536892,-0.01,-0.00,1.00,2.56,-4.64,-4.46
1777398910989,1536902,-0.01,-0.00,1.00,2.56,-4.64,-4.70
1777398910990,1536912,-0.00,-0.00,1.00,2.44,-4.76,-4.82
1777398910990,1536922,-0.00,-0.00,1.00,2.38,-4.58,-5.00
1777398910990,1536932,-0.00,-0.00,1.00,2.32,-4.52,-5.25
1777398910990,1536942,-0.01,-0.00,1.00,2.38,-4.64,-5.07
1777398910990,1536952,-0.01,-0.00,1.00,2.44,-4.70,-4.76
1777398910990,1536962,-0.01,-0.00,1.00,2.50,-4.70,-4.82
1777398910990,1536972,-0.01,-0.00,1.00,2.44,-4.70,-4.88
1777398910990,1536982,-0.01,-0.00,1.00,2.44,-4.58,-5.19
1777398910990,1536992,-0.01,-0.00,1.01,2.32,-4.64,-5.43
1777398910991,1537002,-0.01,-0.00,1.00,2.44,-4.58,-4.88
1777398910991,1537012,-0.01,-0.00,1.00,2.62,-4.70,-4.33
1777398910991,1537022,-0.00,-0.00,1.00,2.62,-4.70,-4.70
1777398910991,1537032,-0.00,-0.00,1.01,2.44,-4.58,-5.00
1777398910991,1537042,-0.01,-0.00,1.00,2.44,-4.58,-4.94
1777398910991,1537052,-0.00,-0.00,1.00,2.44,-4.76,-4.82
1777398910991,1537062,-0.00,-0.00,1.00,2.38,-4.70,-5.00
1777398910991,1537072,-0.00,-0.00,1.00,2.14,-4.70,-5.31
1777398910992,1537092,-0.01,-0.00,1.00,2.56,-4.82,-4.52
1777398910992,1537112,-0.01,-0.00,1.00,2.38,-4.64,-5.07
1777398910992,1537132,-0.01,-0.00,1.00,2.38,-4.64,-5.07
1777398910992,1537152,-0.01,-0.00,1.00,2.50,-4.64,-4.76
1777398910992,1537162,-0.00,-0.00,1.00,2.56,-4.64,-5.00
1777398910992,1537172,-0.01,-0.00,1.00,2.26,-4.64,-5.25
1777398910992,1537182,-0.00,-0.00,1.00,2.38,-4.58,-5.37
1777398910992,1537192,-0.00,-0.00,1.00,2.32,-4.64,-5.31
1777398910992,1537202,-0.00,-0.00,1.00,2.26,-4.64,-5.25
1777398910993,1537212,-0.00,-0.00,1.00,2.32,-4.64,-5.00
1777398910993,1537222,-0.01,-0.00,1.00,2.50,-4.58,-4.82
1777398910993,1537232,-0.01,-0.00,1.00,2.44,-4.70,-4.70
1777398910993,1537242,-0.01,-0.00,1.00,2.56,-4.70,-4.46
1777398910993,1537252,-0.00,-0.00,1.00,2.50,-4.70,-4.70
1777398910993,1537262,-0.01,-0.00,1.00,2.38,-4.64,-5.00
1777398910993,1537272,-0.01,-0.00,1.00,2.44,-4.64,-4.82
1777398910993,1537282,-0.00,-0.00,1.00,2.50,-4.64,-4.70
1777398910993,1537292,-0.01,-0.00,1.00,2.44,-4.70,-4.70
1777398910994,1537302,-0.00,-0.00,1.00,2.62,-4.58,-4.76
1777398910994,1537312,-0.00,-0.00,1.00,2.50,-4.76,-4.82
1777398910994,1537322,-0.01,-0.00,1.00,2.50,-4.64,-4.88
1777398910994,1537332,-0.01,-0.00,1.00,2.44,-4.70,-5.00
1777398910994,1537342,-0.01,-0.00,1.00,2.32,-4.58,-5.07
1777398910994,1537352,-0.00,-0.00,1.00,2.38,-4.70,-4.94
1777398910994,1537362,-0.01,-0.00,1.00,2.44,-4.70,-4.88
1777398910994,1537372,-0.00,-0.00,1.00,2.38,-4.64,-4.82
1777398910994,1537382,-0.01,-0.00,1.00,2.56,-4.58,-4.76
1777398910995,1537392,-0.01,-0.00,1.00,2.44,-4.58,-5.07
1777398910995,1537402,-0.00,-0.00,1.00,2.32,-4.64,-5.25
1777398910995,1537412,-0.01,-0.00,1.00,2.44,-4.64,-5.07
1777398910995,1537422,-0.01,-0.00,1.00,2.44,-4.64,-5.00
1777398910995,1537442,-0.00,-0.00,1.00,2.44,-4.70,-4.94
1777398910995,1537462,-0.01,-0.00,1.00,2.44,-4.64,-4.94
1777398910995,1537482,-0.01,-0.00,1.00,2.38,-4.70,-4.94
1777398910995,1537502,-0.01,-0.00,1.00,2.62,-4.70,-4.64
1777398910995,1537512,-0.01,-0.00,1.00,2.56,-4.76,-4.52
1777398910995,1537522,-0.00,-0.00,1.00,2.44,-4.70,-4.76
1777398910996,1537532,-0.01,-0.00,1.00,2.38,-4.64,-5.07
1777398910996,1537542,-0.01,-0.00,1.00,2.50,-4.70,-4.88
1777398910996,1537552,-0.00,-0.00,1.00,2.44,-4.70,-4.70
1777398910996,1537562,-0.00,-0.00,1.00,2.38,-4.64,-4.94
1777398910996,1537572,-0.00,-0.00,1.00,2.44,-4.70,-5.00
1777398910996,1537582,-0.00,-0.00,1.00,2.38,-4.70,-5.07
1777398910996,1537592,-0.00,-0.00,1.00,2.44,-4.64,-4.88
1777398910996,1537602,-0.00,-0.00,1.00,2.44,-4.64,-5.00
1777398910996,1537612,-0.00,-0.00,1.00,2.32,-4.64,-5.25
1777398910997,1537622,-0.00,-0.00,1.00,2.38,-4.70,-5.07
1777398910997,1537632,-0.01,-0.00,1.00,2.56,-4.64,-4.82
1777398910997,1537642,-0.01,-0.00,1.00,2.50,-4.64,-4.82
1777398910997,1537652,-0.01,-0.00,1.00,2.44,-4.70,-4.94
1777398910997,1537662,-0.00,-0.00,1.00,2.44,-4.76,-4.88
1777398910997,1537672,-0.01,-0.00,1.00,2.44,-4.64,-4.88
1777398910997,1537682,-0.01,-0.00,1.00,2.38,-4.58,-4.88
1777398910997,1537692,-0.01,-0.00,1.00,2.38,-4.64,-4.88
1777398910997,1537702,-0.01,-0.00,1.00,2.44,-4.70,-5.00
1777398910997,1537712,-0.00,-0.00,1.00,2.44,-4.64,-5.00
1777398910998,1537722,-0.01,-0.00,1.00,2.38,-4.64,-4.94
1777398910998,1537732,-0.00,-0.00,1.00,2.32,-4.64,-4.94
1777398910998,1537742,-0.01,-0.00,1.00,2.44,-4.58,-4.88
1777398910998,1537752,-0.01,-0.00,1.00,2.38,-4.70,-4.94
1777398910998,1537762,-0.00,-0.00,1.00,2.32,-4.76,-5.19
1777398910998,1537782,-0.01,-0.00,1.00,2.62,-4.64,-4.33
1777398910998,1537802,-0.01,-0.00,1.00,2.50,-4.64,-4.76
1777398910998,1537822,-0.01,-0.00,1.00,2.62,-4.64,-4.27
1777398910998,1537842,-0.01,-0.00,1.00,2.44,-4.70,-4.70
1777398910998,1537852,-0.01,-0.00,1.00,2.38,-4.70,-4.76
1777398910999,1537862,-0.01,-0.00,1.00,2.44,-4.70,-4.88
1777398910999,1537872,-0.01,-0.00,1.00,2.50,-4.64,-4.64
1777398910999,1537882,-0.01,-0.00,1.00,2.56,-4.70,-4.46
1777398910999,1537892,-0.01,-0.00,1.00,2.56,-4.70,-4.46
1777398910999,1537902,-0.01,-0.00,1.00,2.56,-4.70,-4.52
1777398910999,1537912,-0.00,-0.00,1.00,2.44,-4.58,-4.94
1777398910999,1537922,-0.00,-0.00,1.00,2.32,-4.58,-5.43
1777398910999,1537932,-0.00,-0.00,1.00,2.32,-4.58,-5.31
1777398910999,1537942,-0.00,-0.00,1.00,2.26,-4.58,-5.31
1777398911000,1537952,-0.00,-0.00,1.00,2.32,-4.52,-5.31
1777398911000,1537962,-0.00,-0.00,1.00,2.26,-4.52,-5.19
1777398911000,1537972,-0.01,-0.00,1.00,2.38,-4.64,-5.07
1777398911000,1537982,-0.01,-0.00,1.00,2.44,-4.70,-4.88
1777398911000,1537992,-0.01,-0.00,1.00,2.56,-4.70,-4.76
1777398911000,1538002,-0.01,-0.00,1.00,2.56,-4.76,-4.58
1777398911000,1538012,-0.01,-0.00,1.00,2.50,-4.64,-4.64
1777398911000,1538022,-0.00,-0.00,1.00,2.44,-4.64,-4.88
1777398911000,1538032,-0.00,-0.00,1.00,2.32,-4.64,-5.13
1777398911000,1538042,-0.00,-0.00,1.00,2.26,-4.64,-5.25
1777398911001,1538052,-0.01,-0.00,1.00,2.44,-4.58,-4.88
1777398911001,1538062,-0.01,-0.00,1.00,2.69,-4.70,-4.33
1777398911001,1538072,-0.00,-0.00,1.00,2.50,-4.64,-4.76
1777398911001,1538082,-0.00,-0.00,1.00,2.32,-4.58,-5.37
1777398911001,1538092,-0.00,-0.00,1.00,2.38,-4.70,-5.07
1777398911001,1538102,-0.00,-0.00,1.00,2.38,-4.76,-4.94
1777398911001,1538112,-0.01,-0.00,1.00,2.50,-4.70,-4.33
1777398911001,1538132,-0.01,-0.00,1.00,2.56,-4.58,-4.88
1777398911001,1538152,-0.00,-0.00,1.00,2.32,-4.64,-5.25
1777398911002,1538172,-0.00,-0.00,1.00,2.26,-4.58,-5.25
1777398911002,1538192,-0.01,-0.00,1.00,2.50,-4.64,-5.00
1777398911002,1538202,-0.01,-0.00,1.00,2.44,-4.64,-4.94
1777398911002,1538212,-0.01,-0.00,1.00,2.44,-4.76,-4.94
1777398911002,1538222,-0.00,-0.00,1.00,2.50,-4.70,-4.82
1777398911002,1538232,-0.01,-0.00,1.00,2.50,-4.58,-4.76
1777398911002,1538242,-0.01,-0.00,1.00,2.44,-4.64,-4.82
1777398911002,1538252,-0.00,-0.00,1.00,2.32,-4.64,-5.07
1777398911002,1538262,-0.00,-0.00,1.00,2.32,-4.64,-5.13
1777398911003,1538272,-0.00,-0.00,1.00,2.20,-4.64,-5.19
1777398911003,1538282,-0.01,-0.00,1.00,2.38,-4.64,-4.82
1777398911003,1538292,-0.01,-0.00,1.00,2.62,-4.76,-4.52
1777398911003,1538302,-0.00,-0.00,1.00,2.50,-4.76,-4.64
1777398911003,1538312,-0.01,-0.00,1.00,2.44,-4.70,-4.88
1777398911003,1538322,-0.00,-0.00,1.00,2.50,-4.64,-4.82
1777398911003,1538332,-0.00,-0.00,1.00,2.44,-4.64,-4.82
1777398911003,1538342,-0.00,-0.00,1.00,2.44,-4.58,-5.07
1777398911003,1538352,-0.00,-0.00,1.00,2.32,-4.64,-5.31
1777398911003,1538362,-0.00,-0.00,1.00,2.26,-4.58,-5.37
1777398911004,1538372,-0.00,-0.00,1.00,2.32,-4.64,-5.25
1777398911004,1538382,-0.01,-0.00,1.00,2.44,-4.70,-4.88
1777398911004,1538392,-0.01,-0.00,1.00,2.62,-4.70,-4.39
1777398911004,1538402,-0.01,-0.00,1.00,2.50,-4.64,-4.58
1777398911004,1538412,-0.01,-0.00,1.00,2.44,-4.64,-5.00
1777398911004,1538422,-0.01,-0.00,1.00,2.44,-4.64,-4.88
1777398911004,1538432,-0.01,-0.00,1.00,2.50,-4.70,-4.58
1777398911004,1538442,-0.00,-0.00,1.00,2.50,-4.70,-4.76
1777398911004,1538452,-0.01,-0.00,1.00,2.44,-4.70,-4.82
1777398911004,1538472,-0.00,-0.00,1.00,2.44,-4.70,-4.70
1777398911005,1538492,-0.01,-0.00,1.00,2.62,-4.70,-4.52
1777398911005,1538512,-0.01,-0.00,1.00,2.62,-4.70,-4.39
1777398911005,1538532,-0.01,-0.00,1.00,2.69,-4.70,-4.39
1777398911005,1538542,-0.01,-0.00,1.00,2.62,-4.70,-4.52
1777398911005,1538552,-0.01,-0.00,1.00,2.62,-4.64,-4.46
1777398911005,1538562,-0.01,-0.00,1.00,2.62,-4.70,-4.39
1777398911005,1538572,-0.01,-0.00,1.00,2.56,-4.70,-4.64
1777398911005,1538582,-0.00,-0.00,1.00,2.44,-4.70,-4.82
1777398911005,1538592,-0.00,-0.00,1.00,2.44,-4.64,-4.76
1777398911005,1538602,-0.00,-0.00,1.00,2.44,-4.70,-4.64
1777398911006,1538612,-0.01,-0.00,1.00,2.44,-4.70,-4.76
1777398911006,1538622,-0.00,-0.00,1.00,2.50,-4.70,-4.82
1777398911006,1538632,-0.00,-0.00,1.00,2.38,-4.64,-4.94
1777398911006,1538642,-0.01,-0.00,1.00,2.32,-4.76,-5.13
1777398911006,1538652,-0.01,-0.00,1.00,2.38,-4.64,-5.13
1777398911006,1538662,-0.00,-0.00,1.00,2.38,-4.64,-5.00
1777398911006,1538672,-0.01,-0.00,1.00,2.44,-4.70,-4.88
1777398911006,1538682,-0.01,-0.00,1.00,2.44,-4.64,-4.82
1777398911006,1538692,-0.00,-0.00,1.00,2.38,-4.64,-5.13
1777398911006,1538702,-0.00,-0.00,1.00,2.26,-4.70,-5.31
1777398911007,1538712,-0.00,-0.00,1.00,2.32,-4.64,-5.31
1777398911007,1538722,-0.00,-0.00,1.00,2.38,-4.64,-5.25
1777398911007,1538732,-0.01,-0.00,1.00,2.50,-4.70,-4.94
1777398911007,1538742,-0.01,-0.00,1.00,2.56,-4.70,-4.46
1777398911007,1538752,-0.01,-0.00,1.00,2.56,-4.70,-4.58
1777398911007,1538762,-0.00,-0.00,1.00,2.50,-4.76,-4.64
1777398911007,1538772,-0.01,-0.00,1.00,2.44,-4.64,-4.70
1777398911007,1538782,-0.01,-0.00,1.00,2.44,-4.64,-4.82
1777398911007,1538792,-0.01,-0.00,1.00,2.44,-4.58,-4.88
1777398911007,1538802,-0.01,-0.00,1.00,2.44,-4.70,-4.82
1777398911007,1538822,-0.01,-0.00,1.00,2.44,-4.64,-5.13
1777398911008,1538842,-0.00,-0.00,1.00,2.32,-4.64,-5.13
1777398911008,1538862,-0.01,-0.00,1.00,2.44,-4.70,-4.94
1777398911008,1538882,-0.01,-0.00,1.00,2.50,-4.64,-4.76
1777398911008,1538892,-0.01,-0.00,1.00,2.56,-4.64,-4.39
1777398911008,1538902,-0.01,-0.00,1.00,2.56,-4.58,-4.33
1777398911008,1538912,-0.01,-0.00,1.00,2.62,-4.64,-4.39
1777398911008,1538922,-0.00,-0.00,1.00,2.50,-4.70,-4.82
1777398911008,1538932,-0.00,-0.00,1.00,2.26,-4.64,-5.31
1777398911008,1538942,-0.00,-0.00,1.00,2.20,-4.58,-5.31
1777398911008,1538952,-0.00,-0.00,1.00,2.26,-4.52,-5.37
1777398911009,1538962,-0.00,-0.00,1.00,2.32,-4.58,-5.25
1777398911009,1538972,-0.01,-0.00,1.00,2.38,-4.64,-5.07
1777398911009,1538982,-0.00,-0.00,1.00,2.44,-4.64,-4.94
1777398911009,1538992,-0.00,-0.00,1.00,2.50,-4.76,-4.88
1777398911009,1539002,-0.00,-0.00,1.00,2.50,-4.70,-4.82
1777398911009,1539012,-0.00,-0.00,1.00,2.44,-4.64,-4.94
1777398911009,1539022,-0.01,-0.00,1.00,2.38,-4.70,-5.00
1777398911009,1539032,-0.00,-0.00,1.00,2.32,-4.70,-5.07
1777398911009,1539042,-0.00,-0.00,1.00,2.44,-4.58,-5.00
1777398911009,1539052,-0.01,-0.00,1.00,2.44,-4.64,-4.94
1777398911010,1539062,-0.00,-0.00,1.00,2.44,-4.76,-4.88
1777398911010,1539072,-0.00,-0.00,1.00,2.44,-4.70,-4.82
1777398911010,1539082,-0.01,-0.00,1.00,2.56,-4.64,-4.58
1777398911010,1539092,-0.01,-0.00,1.00,2.62,-4.70,-4.33
1777398911010,1539102,-0.01,-0.00,1.00,2.62,-4.64,-4.52
1777398911010,1539112,-0.00,-0.00,1.00,2.44,-4.64,-4.70
1777398911010,1539122,-0.01,-0.00,1.00,2.62,-4.70,-4.64
1777398911010,1539132,-0.01,-0.00,1.00,2.62,-4.70,-4.52
1777398911010,1539142,-0.01,-0.00,1.00,2.56,-4.76,-4.76
1777398911010,1539162,-0.00,-0.00,1.00,2.26,-4.64,-5.31
1777398911011,1539182,-0.01,-0.00,1.00,2.56,-4.76,-4.76
1777398911011,1539202,-0.00,-0.00,1.00,2.32,-4.70,-5.31
1777398911011,1539222,-0.00,-0.00,1.00,2.62,-4.64,-4.46
1777398911011,1539232,-0.00,-0.00,1.00,2.38,-4.70,-4.82
1777398911011,1539242,-0.00,-0.00,1.00,2.26,-4.58,-5.31
1777398911011,1539252,-0.00,-0.00,1.00,2.38,-4.58,-5.13
1777398911011,1539262,-0.00,-0.00,1.00,2.44,-4.64,-4.88
1777398911011,1539272,-0.01,-0.00,1.00,2.50,-4.70,-4.76
1777398911011,1539282,-0.01,-0.00,1.00,2.69,-4.76,-4.52
1777398911012,1539292,-0.01,-0.00,1.00,2.69,-4.76,-4.52
1777398911012,1539302,-0.01,-0.00,1.00,2.69,-4.70,-4.46
1777398911012,1539312,-0.01,-0.00,1.00,2.56,-4.76,-4.64
1777398911012,1539322,-0.01,-0.00,1.00,2.38,-4.70,-5.07
1777398911012,1539332,-0.01,-0.00,1.00,2.32,-4.64,-4.94
1777398911012,1539342,-0.00,-0.00,1.00,2.38,-4.64,-4.94
1777398911012,1539352,-0.01,-0.00,1.00,2.50,-4.64,-4.88
1777398911012,1539362,-0.01,-0.00,1.00,2.44,-4.76,-4.94
1777398911012,1539372,-0.00,-0.00,1.00,2.44,-4.70,-4.88
1777398911012,1539382,-0.00,-0.00,1.00,2.44,-4.64,-4.88
1777398911013,1539392,-0.00,-0.00,1.00,2.38,-4.58,-5.13
1777398911013,1539402,-0.00,-0.00,1.00,2.26,-4.70,-5.31
1777398911013,1539412,-0.01,-0.00,1.00,2.32,-4.52,-5.19
1777398911013,1539422,-0.01,-0.00,1.00,2.38,-4.70,-5.00
1777398911013,1539432,-0.00,-0.00,1.00,2.32,-4.70,-5.00
1777398911013,1539442,-0.00,-0.00,1.00,2.32,-4.76,-5.07
1777398911013,1539452,-0.01,-0.00,1.00,2.32,-4.76,-4.88
1777398911013,1539462,-0.01,-0.00,1.00,2.56,-4.58,-4.70
1777398911013,1539472,-0.01,-0.00,1.00,2.50,-4.70,-4.88
1777398911013,1539482,-0.01,-0.00,1.00,2.38,-4.64,-4.88
1777398911013,1539492,-0.00,-0.00,1.00,2.38,-4.58,-5.31
1777398911014,1539512,-0.01,-0.00,1.00,2.56,-4.70,-4.70
1777398911014,1539532,-0.01,-0.00,1.00,2.62,-4.70,-4.52
1777398911014,1539552,-0.00,-0.00,1.00,2.32,-4.70,-5.31
1777398911014,1539572,-0.00,-0.00,1.00,2.26,-4.64,-5.31
1777398911014,1539582,-0.00,-0.00,1.00,2.32,-4.70,-5.13
1777398911014,1539592,-0.00,-0.00,1.00,2.44,-4.70,-5.00
1777398911014,1539602,-0.01,-0.00,1.00,2.50,-4.70,-4.76
1777398911014,1539612,-0.01,-0.00,1.00,2.62,-4.64,-4.39
1777398911014,1539622,-0.01,-0.00,1.00,2.56,-4.76,-4.46
1777398911014,1539632,-0.01,-0.00,1.00,2.56,-4.70,-4.70
1777398911015,1539642,-0.01,-0.00,1.00,2.44,-4.70,-4.94
1777398911015,1539652,-0.00,-0.00,1.00,2.20,-4.58,-5.37
1777398911015,1539662,-0.01,-0.00,1.00,2.32,-4.64,-5.31
1777398911015,1539672,-0.00,-0.00,1.00,2.32,-4.64,-5.25
1777398911015,1539682,-0.01,-0.00,1.00,2.32,-4.64,-5.13
1777398911015,1539692,-0.00,-0.00,1.00,2.38,-4.58,-4.88
1777398911015,1539702,-0.01,-0.00,1.00,2.50,-4.64,-4.82
1777398911015,1539712,-0.01,-0.00,1.00,2.56,-4.70,-4.64
1777398911015,1539722,-0.00,-0.00,1.00,2.44,-4.70,-5.00
1777398911015,1539732,-0.00,-0.00,1.00,2.26,-4.70,-5.31
1777398911016,1539742,-0.00,-0.00,1.00,2.38,-4.64,-4.88
1777398911016,1539752,-0.01,-0.00,1.00,2.62,-4.70,-4.33
1777398911016,1539762,-0.00,-0.00,1.00,2.38,-4.82,-4.94
1777398911016,1539772,-0.00,-0.00,1.00,2.26,-4.64,-5.37
1777398911016,1539782,-0.00,-0.00,1.00,2.32,-4.64,-5.13
1777398911016,1539792,-0.01,-0.00,1.00,2.44,-4.70,-4.88
1777398911016,1539802,-0.01,-0.00,1.00,2.50,-4.64,-4.64
1777398911016,1539812,-0.01,-0.00,1.00,2.56,-4.70,-4.46
1777398911016,1539822,-0.01,-0.00,1.00,2.50,-4.70,-4.70
1777398911016,1539832,-0.01,-0.00,1.00,2.44,-4.64,-4.82
1777398911017,1539852,-0.01,-0.00,1.00,2.38,-4.70,-4.82
1777398911017,1539872,-0.00,-0.00,1.00,2.38,-4.64,-4.82
1777398911017,1539892,-0.01,-0.00,1.00,2.50,-4.64,-4.82
1777398911017,1539912,-0.01,-0.00,1.00,2.44,-4.58,-4.70
1777398911017,1539922,-0.01,-0.00,1.00,2.38,-4.64,-4.88
1777398911017,1539932,-0.01,-0.00,1.00,2.44,-4.64,-5.00
1777398911017,1539942,-0.00,-0.00,1.00,2.32,-4.64,-5.25
1777398911017,1539952,-0.00,-0.00,1.00,2.32,-4.64,-5.37
1777398911017,1539962,-0.00,-0.00,1.00,2.32,-4.64,-5.43
1777398911017,1539972,-0.00,-0.00,1.00,2.26,-4.58,-5.25
1777398911017,1539982,-0.00,-0.00,1.00,2.38,-4.70,-5.31
1777398911018,1539992,-0.00,-0.00,1.00,2.32,-4.64,-5.07
1777398911018,1540002,-0.00,-0.00,1.00,2.38,-4.64,-5.07
1777398911018,1540012,-0.01,-0.00,1.00,2.44,-4.70,-4.82
1777398911018,1540022,-0.01,-0.00,1.00,2.62,-4.70,-4.39
1777398911018,1540032,-0.01,-0.00,1.00,2.50,-4.64,-4.76
1777398911018,1540042,-0.00,-0.00,1.00,2.38,-4.58,-5.00
1777398911018,1540052,-0.01,-0.00,1.00,2.44,-4.64,-4.64
1777398911018,1540062,-0.01,-0.00,1.00,2.69,-4.64,-4.33
1777398911018,1540072,-0.01,-0.00,1.00,2.56,-4.64,-4.58
1777398911018,1540082,-0.01,-0.00,1.00,2.44,-4.76,-4.88
1777398911019,1540092,-0.01,-0.00,1.00,2.44,-4.70,-4.94
1777398911019,1540102,-0.01,-0.00,1.00,2.44,-4.70,-4.88
1777398911019,1540112,-0.01,-0.00,1.00,2.44,-4.64,-4.76
1777398911019,1540122,-0.01,-0.00,1.00,2.62,-4.70,-4.52
1777398911019,1540132,-0.01,-0.00,1.00,2.62,-4.76,-4.58
1777398911019,1540142,-0.01,-0.00,1.00,2.62,-4.76,-4.58
1777398911019,1540152,-0.00,-0.00,1.00,2.62,-4.70,-4.70
1777398911019,1540162,-0.01,-0.00,1.00,2.44,-4.64,-4.88
1777398911019,1540172,-0.00,-0.00,1.00,2.50,-4.70,-4.82
1777398911019,1540182,-0.00,-0.00,1.00,2.50,-4.64,-5.00
1777398911019,1540202,-0.00,-0.00,1.00,2.32,-4.58,-5.31
1777398911020,1540222,-0.00,-0.00,1.00,2.32,-4.70,-5.19
1777398911020,1540242,-0.01,-0.00,1.00,2.44,-4.64,-4.82
1777398911020,1540262,-0.01,-0.00,1.00,2.38,-4.70,-4.88
1777398911020,1540272,-0.00,-0.00,1.00,2.44,-4.64,-4.76
1777398911020,1540282,-0.01,-0.00,1.00,2.50,-4.70,-4.94
1777398911020,1540292,-0.00,-0.00,1.00,2.32,-4.70,-4.94
1777398911020,1540302,-0.01,-0.00,1.00,2.44,-4.70,-4.88
1777398911020,1540312,-0.00,-0.00,1.00,2.44,-4.70,-4.82
1777398911020,1540322,-0.01,-0.00,1.00,2.56,-4.64,-4.70
1777398911020,1540332,-0.01,-0.00,1.00,2.50,-4.70,-4.58
1777398911021,1540342,-0.01,-0.00,1.00,2.38,-4.64,-4.70
1777398911021,1540352,-0.01,-0.00,1.00,2.50,-4.70,-4.82
1777398911021,1540362,-0.00,-0.00,1.00,2.44,-4.70,-4.94
1777398911021,1540372,-0.00,-0.00,1.00,2.32,-4.64,-5.00
1777398911021,1540382,-0.01,-0.00,1.00,2.50,-4.70,-4.76
1777398911021,1540392,-0.01,-0.00,1.00,2.56,-4.70,-4.46
1777398911021,1540402,-0.01,-0.00,1.00,2.56,-4.64,-4.39
1777398911021,1540412,-0.01,-0.00,1.00,2.69,-4.70,-4.33
1777398911021,1540422,-0.00,-0.00,1.00,2.44,-4.58,-4.70
1777398911021,1540432,-0.00,-0.00,1.00,2.32,-4.58,-5.25
1777398911022,1540442,-0.01,-0.00,1.00,2.44,-4.64,-4.82
1777398911022,1540452,-0.01,-0.00,1.00,2.62,-4.76,-4.33
1777398911022,1540462,-0.01,-0.00,1.00,2.56,-4.70,-4.58
1777398911022,1540472,-0.01,-0.00,1.00,2.44,-4.58,-4.88
1777398911022,1540482,-0.00,-0.00,1.00,2.38,-4.64,-5.13
1777398911022,1540492,-0.01,-0.00,1.00,2.26,-4.70,-5.49
1777398911022,1540502,-0.01,-0.00,1.00,2.38,-4.70,-5.13
1777398911022,1540512,-0.00,-0.00,1.00,2.44,-4.64,-4.88
1777398911022,1540522,-0.00,-0.00,1.00,2.44,-4.70,-4.94
1777398911023,1540542,-0.01,-0.00,1.00,2.38,-4.64,-4.88
1777398911023,1540562,-0.00,-0.00,1.00,2.26,-4.64,-5.43
1777398911023,1540582,-0.00,-0.00,1.00,2.44,-4.64,-4.82
1777398911023,1540602,-0.01,-0.00,1.00,2.56,-4.64,-4.82
1777398911023,1540612,-0.00,-0.00,1.00,2.44,-4.64,-4.94
1777398911023,1540622,-0.00,-0.00,1.00,2.26,-4.64,-5.19
1777398911023,1540632,-0.01,-0.00,1.00,2.44,-4.76,-4.82
1777398911023,1540642,-0.01,-0.00,1.00,2.75,-4.64,-4.39
1777398911023,1540652,-0.00,-0.00,1.00,2.56,-4.64,-4.64
1777398911023,1540662,-0.01,-0.00,1.00,2.44,-4.64,-4.88
1777398911024,1540672,-0.01,-0.00,1.00,2.50,-4.64,-4.64
1777398911024,1540682,-0.01,-0.00,1.00,2.62,-4.64,-4.33
1777398911024,1540692,-0.00,-0.00,1.00,2.50,-4.64,-4.70
1777398911024,1540702,-0.00,-0.00,1.00,2.32,-4.64,-5.25
1777398911024,1540712,-0.01,-0.00,1.00,2.44,-4.70,-4.82
1777398911024,1540722,-0.01,-0.00,1.00,2.62,-4.70,-4.33
1777398911024,1540732,-0.00,-0.00,1.00,2.50,-4.76,-4.70
1777398911024,1540742,-0.00,-0.00,1.00,2.44,-4.70,-5.13
1777398911024,1540752,-0.01,-0.00,1.00,2.44,-4.58,-4.76
1777398911024,1540762,-0.01,-0.00,1.00,2.62,-4.58,-4.39
1777398911024,1540772,-0.00,-0.00,1.00,2.56,-4.70,-4.64
1777398911025,1540782,-0.00,-0.00,1.00,2.44,-4.70,-4.88
1777398911025,1540792,-0.01,-0.00,1.00,2.44,-4.70,-4.82
1777398911025,1540802,-0.00,-0.00,1.00,2.38,-4.64,-4.82
1777398911025,1540812,-0.00,-0.00,1.00,2.50,-4.64,-4.76
1777398911025,1540822,-0.00,-0.00,1.00,2.50,-4.70,-4.82
1777398911025,1540832,-0.00,-0.00,1.00,2.44,-4.64,-5.07
1777398911025,1540842,-0.00,-0.00,1.00,2.38,-4.64,-5.19
1777398911025,1540852,-0.01,-0.00,1.00,2.50,-4.58,-4.76
1777398911025,1540862,-0.01,-0.00,1.00,2.62,-4.64,-4.33
1777398911025,1540872,-0.01,-0.00,1.00,2.62,-4.64,-4.76
1777398911026,1540892,-0.01,-0.00,1.00,2.75,-4.70,-4.27
1777398911026,1540912,-0.01,-0.00,1.00,2.44,-4.70,-4.88
1777398911026,1540932,-0.00,-0.00,1.00,2.44,-4.70,-5.00
1777398911026,1540942,-0.01,-0.00,1.00,2.50,-4.70,-4.70
1777398911026,1540952,-0.01,-0.00,1.00,2.69,-4.70,-4.39
1777398911026,1540962,-0.00,-0.00,1.00,2.62,-4.64,-4.58
1777398911026,1540972,-0.01,-0.00,1.00,2.38,-4.64,-4.88
1777398911026,1540982,-0.00,-0.00,1.00,2.38,-4.58,-4.94
1777398911026,1540992,-0.00,-0.00,1.00,2.38,-4.64,-5.00
1777398911026,1541002,-0.01,-0.00,1.00,2.50,-4.58,-4.70
1777398911026,1541012,-0.00,-0.00,1.00,2.62,-4.70,-4.46
1777398911027,1541022,-0.00,-0.00,1.00,2.62,-4.70,-4.64
1777398911027,1541032,-0.01,-0.00,1.00,2.50,-4.70,-4.88
1777398911027,1541042,-0.00,-0.00,1.00,2.32,-4.58,-5.13
1777398911027,1541052,-0.00,-0.00,1.00,2.26,-4.64,-5.31
1777398911027,1541062,-0.01,-0.00,1.00,2.38,-4.64,-5.00
1777398911027,1541072,-0.01,-0.00,1.00,2.50,-4.64,-4.82
1777398911027,1541082,-0.01,-0.00,1.00,2.62,-4.76,-4.70
1777398911027,1541092,-0.01,-0.00,1.00,2.69,-4.70,-4.39
1777398911027,1541102,-0.00,-0.00,1.00,2.44,-4.64,-4.82
1777398911027,1541112,-0.00,-0.00,1.00,2.32,-4.64,-5.31
1777398911028,1541122,-0.01,-0.00,1.00,2.50,-4.64,-4.94
1777398911028,1541132,-0.01,-0.00,1.00,2.56,-4.76,-4.58
1777398911028,1541142,-0.00,-0.00,1.00,2.50,-4.64,-4.88
1777398911028,1541152,-0.00,-0.00,1.00,2.32,-4.58,-5.37
1777398911028,1541162,-0.00,-0.00,1.00,2.32,-4.58,-5.31
1777398911028,1541172,-0.00,-0.00,1.00,2.32,-4.64,-5.07
1777398911028,1541182,-0.01,-0.00,1.00,2.44,-4.76,-4.82
1777398911028,1541192,-0.01,-0.00,1.00,2.56,-4.76,-4.52
1777398911028,1541202,-0.00,-0.00,1.00,2.50,-4.70,-4.76
1777398911028,1541212,-0.00,-0.00,1.00,2.38,-4.58,-5.25
1777398911029,1541232,-0.00,-0.00,1.00,2.32,-4.64,-5.25
1777398911029,1541252,-0.01,-0.00,1.00,2.56,-4.70,-4.70
1777398911029,1541272,-0.00,-0.00,1.00,2.44,-4.70,-4.88
1777398911029,1541292,-0.01,-0.00,1.00,2.44,-4.70,-5.00
1777398911029,1541302,-0.01,-0.00,1.00,2.62,-4.76,-4.52
1777398911029,1541312,-0.00,-0.00,1.00,2.50,-4.70,-4.76
1777398911029,1541322,-0.01,-0.00,1.00,2.44,-4.64,-4.94
1777398911029,1541332,-0.01,-0.00,1.00,2.44,-4.64,-4.76
1777398911029,1541342,-0.01,-0.00,1.00,2.56,-4.76,-4.64
1777398911029,1541352,-0.01,-0.00,1.00,2.56,-4.70,-4.52
1777398911030,1541362,-0.01,-0.00,1.00,2.62,-4.76,-4.46
1777398911030,1541372,-0.01,-0.00,1.00,2.62,-4.76,-4.39
1777398911030,1541382,-0.01,-0.00,1.00,2.69,-4.76,-4.39
1777398911030,1541392,-0.01,-0.00,1.00,2.56,-4.76,-4.70
1777398911030,1541402,-0.00,-0.00,1.00,2.38,-4.70,-5.07
1777398911030,1541412,-0.00,-0.00,1.00,2.38,-4.64,-5.13
1777398911030,1541422,-0.00,-0.00,1.00,2.38,-4.64,-5.07
1777398911030,1541432,-0.01,-0.00,1.00,2.38,-4.64,-4.94
1777398911030,1541442,-0.00,-0.00,1.00,2.50,-4.70,-4.88
1777398911030,1541452,-0.01,-0.00,1.00,2.56,-4.70,-4.88
1777398911031,1541462,-0.01,-0.00,1.00,2.56,-4.64,-4.88
1777398911031,1541472,-0.01,-0.00,1.00,2.50,-4.70,-4.82
1777398911031,1541482,-0.01,-0.00,1.00,2.56,-4.70,-4.76
1777398911031,1541492,-0.01,-0.00,1.00,2.56,-4.70,-4.76
1777398911031,1541502,-0.00,-0.00,1.00,2.50,-4.58,-4.76
1777398911031,1541512,-0.01,-0.00,1.00,2.44,-4.70,-4.76
1777398911031,1541522,-0.01,-0.00,1.00,2.44,-4.64,-4.88
1777398911031,1541532,-0.01,-0.00,1.00,2.50,-4.70,-4.94
1777398911031,1541542,-0.01,-0.00,1.00,2.44,-4.64,-4.94
1777398911032,1541552,-0.01,-0.00,1.00,2.44,-4.70,-4.76
1777398911032,1541562,-0.01,-0.00,1.00,2.62,-4.70,-4.58
1777398911032,1541582,-0.01,-0.00,1.00,2.44,-4.70,-4.82
1777398911032,1541602,-0.00,-0.00,1.00,2.56,-4.76,-4.64
1777398911032,1541622,-0.01,-0.00,1.00,2.62,-4.70,-4.52
1777398911032,1541632,-0.01,-0.00,1.00,2.62,-4.76,-4.39
1777398911032,1541642,-0.01,-0.00,1.00,2.62,-4.64,-4.64
1777398911032,1541652,-0.01,-0.00,1.00,2.44,-4.70,-4.82
1777398911032,1541662,-0.00,-0.00,1.00,2.44,-4.76,-4.88
1777398911033,1541672,-0.00,-0.00,1.00,2.32,-4.76,-5.13
1777398911033,1541682,-0.01,-0.00,1.00,2.38,-4.70,-5.25
1777398911033,1541692,-0.00,-0.00,1.00,2.32,-4.64,-5.19
1777398911033,1541702,-0.01,-0.00,1.00,2.50,-4.64,-4.88
1777398911033,1541712,-0.01,-0.00,1.00,2.62,-4.70,-4.58
1777398911033,1541722,-0.00,-0.00,1.00,2.38,-4.76,-4.94
1777398911033,1541732,-0.00,-0.00,1.00,2.14,-4.64,-5.37
1777398911033,1541742,-0.01,-0.00,1.00,2.32,-4.70,-5.07
1777398911033,1541752,-0.00,-0.00,1.00,2.50,-4.70,-4.94
1777398911033,1541762,-0.01,-0.00,1.00,2.44,-4.70,-4.82
1777398911034,1541772,-0.00,-0.00,1.00,2.38,-4.70,-4.82
1777398911034,1541782,-0.01,-0.00,1.00,2.50,-4.64,-4.88
1777398911034,1541792,-0.01,-0.00,1.00,2.38,-4.82,-4.88
1777398911034,1541802,-0.00,-0.00,1.00,2.38,-4.70,-5.13
1777398911034,1541812,-0.00,-0.00,1.00,2.26,-4.76,-5.37
1777398911034,1541822,-0.00,-0.00,1.00,2.38,-4.76,-5.13
1777398911034,1541832,-0.00,-0.00,1.00,2.38,-4.70,-4.88
1777398911034,1541842,-0.00,-0.00,1.00,2.50,-4.70,-4.70
1777398911034,1541852,-0.01,-0.00,1.00,2.69,-4.70,-4.58
1777398911034,1541862,-0.00,-0.00,1.00,2.56,-4.70,-4.52
1777398911035,1541872,-0.01,-0.00,1.00,2.62,-4.70,-4.52
1777398911035,1541882,-0.00,-0.00,1.00,2.38,-4.64,-4.82
1777398911035,1541892,-0.00,-0.00,1.00,2.20,-4.64,-5.31
1777398911035,1541902,-0.01,-0.00,1.00,2.38,-4.58,-4.88
1777398911035,1541922,-0.01,-0.00,1.00,2.56,-4.70,-4.52
1777398911035,1541942,-0.01,-0.00,1.00,2.62,-4.70,-4.33
1777398911035,1541962,-0.01,-0.00,1.00,2.20,-4.64,-5.37
1777398911035,1541982,-0.01,-0.00,1.00,2.50,-4.76,-4.88
1777398911035,1541992,-0.01,-0.00,1.00,2.44,-4.64,-4.94
1777398911035,1542002,-0.01,-0.00,1.00,2.38,-4.58,-5.13
1777398911035,1542012,-0.00,-0.00,1.00,2.20,-4.70,-5.25
1777398911036,1542022,-0.00,-0.00,1.00,2.38,-4.58,-5.31
1777398911036,1542032,-0.01,-0.00,1.00,2.32,-4.76,-5.13
1777398911036,1542042,-0.00,-0.00,1.00,2.44,-4.70,-4.94
1777398911036,1542052,-0.01,-0.00,1.00,2.38,-4.70,-5.00
1777398911036,1542062,-0.00,-0.00,1.00,2.32,-4.64,-5.07
1777398911036,1542072,-0.01,-0.00,1.00,2.38,-4.64,-5.07
1777398911036,1542082,-0.00,-0.00,1.00,2.38,-4.64,-5.13
1777398911036,1542092,-0.01,-0.00,1.00,2.50,-4.70,-4.76
1777398911036,1542102,-0.01,-0.00,1.00,2.69,-4.76,-4.33
1777398911036,1542112,-0.00,-0.00,1.00,2.56,-4.64,-4.58
1777398911037,1542122,-0.00,-0.00,1.00,2.44,-4.64,-4.82
1777398911037,1542132,-0.01,-0.00,1.00,2.50,-4.64,-4.64
1777398911037,1542142,-0.01,-0.00,1.00,2.62,-4.70,-4.33
1777398911037,1542152,-0.00,-0.00,1.00,2.50,-4.76,-4.76
1777398911037,1542162,-0.00,-0.00,1.00,2.26,-4.64,-5.31
1777398911037,1542172,-0.01,-0.00,1.00,2.32,-4.70,-5.00
1777398911037,1542182,-0.01,-0.00,1.00,2.50,-4.70,-4.70
1777398911037,1542192,-0.01,-0.00,1.00,2.56,-4.76,-4.64
1777398911037,1542202,-0.01,-0.00,1.00,2.56,-4.70,-4.39
1777398911038,1542212,-0.01,-0.00,1.00,2.62,-4.70,-4.52
1777398911038,1542222,-0.01,-0.00,1.00,2.56,-4.70,-4.64
1777398911038,1542232,-0.01,-0.00,1.00,2.56,-4.70,-4.58
1777398911038,1542242,-0.01,-0.00,1.00,2.50,-4.64,-4.76
1777398911038,1542252,-0.00,-0.00,1.00,2.44,-4.70,-5.07
1777398911038,1542272,-0.00,-0.00,1.00,2.50,-4.70,-4.82
1777398911038,1542292,-0.00,-0.00,1.00,2.26,-4.64,-5.37
1777398911038,1542312,-0.01,-0.00,1.00,2.62,-4.76,-4.52
1777398911038,1542322,-0.01,-0.00,1.00,2.56,-4.76,-4.52
1777398911038,1542332,-0.01,-0.00,1.00,2.56,-4.70,-4.52
1777398911038,1542342,-0.00,-0.00,1.00,2.44,-4.70,-4.76
1777398911039,1542352,-0.00,-0.00,1.00,2.32,-4.76,-5.19
1777398911039,1542362,-0.00,-0.00,1.00,2.38,-4.64,-5.00
1777398911039,1542372,-0.01,-0.00,1.00,2.44,-4.64,-4.76
1777398911039,1542382,-0.01,-0.00,1.00,2.38,-4.64,-4.82
1777398911039,1542392,-0.01,-0.00,1.00,2.44,-4.64,-4.88
1777398911039,1542402,-0.01,-0.00,1.00,2.44,-4.64,-4.88
1777398911039,1542412,-0.01,-0.00,1.00,2.44,-4.58,-4.88
1777398911039,1542422,-0.01,-0.00,1.00,2.56,-4.64,-4.64
1777398911039,1542432,-0.01,-0.00,1.00,2.50,-4.70,-4.52
1777398911039,1542442,-0.00,-0.00,1.00,2.32,-4.76,-4.94
1777398911039,1542452,-0.00,-0.00,1.00,2.20,-4.70,-5.31
1777398911040,1542462,-0.00,-0.00,1.00,2.38,-4.64,-5.13
1777398911040,1542472,-0.01,-0.00,1.00,2.56,-4.70,-4.94
1777398911040,1542482,-0.01,-0.00,1.00,2.50,-4.70,-4.94
1777398911040,1542492,-0.01,-0.00,1.00,2.44,-4.70,-4.88
1777398911040,1542502,-0.00,-0.00,1.00,2.44,-4.70,-4.76
1777398911040,1542512,-0.01,-0.00,1.00,2.50,-4.70,-4.70
1777398911040,1542522,-0.00,-0.00,1.00,2.32,-4.58,-4.94
1777398911040,1542532,-0.00,-0.00,1.00,2.26,-4.64,-5.31
1777398911040,1542542,-0.00,-0.00,1.00,2.32,-4.58,-5.13
1777398911040,1542552,-0.00,-0.00,1.00,2.50,-4.70,-4.94
1777398911040,1542562,-0.00,-0.00,1.00,2.38,-4.64,-5.13
1777398911041,1542572,-0.00,-0.00,1.00,2.32,-4.64,-5.25
1777398911041,1542582,-0.01,-0.00,1.00,2.38,-4.58,-5.07
1777398911041,1542592,-0.00,-0.00,1.00,2.44,-4.70,-4.82
1777398911041,1542612,-0.01,-0.00,1.00,2.50,-4.70,-4.58
1777398911041,1542632,-0.00,-0.00,1.00,2.44,-4.58,-4.88
1777398911041,1542652,-0.01,-0.00,1.00,2.44,-4.64,-4.82
1777398911041,1542672,-0.00,-0.00,1.00,2.50,-4.64,-4.76
1777398911041,1542682,-0.00,-0.00,1.00,2.44,-4.82,-5.00
1777398911041,1542692,-0.00,-0.00,1.00,2.38,-4.70,-5.13
1777398911041,1542702,-0.00,-0.00,1.00,2.20,-4.58,-5.31
1777398911042,1542712,-0.01,-0.00,1.00,2.32,-4.64,-5.07
1777398911042,1542722,-0.01,-0.00,1.00,2.56,-4.70,-4.58
1777398911042,1542732,-0.01,-0.00,1.00,2.56,-4.76,-4.70
1777398911042,1542742,-0.01,-0.00,1.00,2.50,-4.64,-4.76
1777398911042,1542752,-0.00,-0.00,1.00,2.44,-4.64,-5.07
1777398911042,1542762,-0.00,-0.00,1.00,2.32,-4.58,-5.31
1777398911042,1542772,-0.00,-0.00,1.00,2.44,-4.70,-5.00
1777398911042,1542782,-0.01,-0.00,1.00,2.50,-4.64,-4.64
1777398911042,1542792,-0.01,-0.00,1.00,2.56,-4.64,-4.52
1777398911042,1542802,-0.01,-0.00,1.00,2.62,-4.70,-4.52
1777398911043,1542812,-0.01,-0.00,1.00,2.62,-4.70,-4.46
1777398911043,1542822,-0.01,-0.00,1.00,2.62,-4.64,-4.52
1777398911043,1542832,-0.01,-0.00,1.00,2.50,-4.64,-4.58
1777398911043,1542842,-0.00,-0.00,1.00,2.50,-4.70,-4.64
1777398911043,1542852,-0.00,-0.00,1.00,2.38,-4.70,-5.00
1777398911043,1542862,-0.00,-0.00,1.00,2.20,-4.70,-5.37
1777398911043,1542872,-0.00,-0.00,1.00,2.26,-4.70,-5.43
1777398911043,1542882,-0.00,-0.00,1.00,2.26,-4.64,-5.37
1777398911043,1542892,-0.00,-0.00,1.00,2.38,-4.64,-5.25
1777398911043,1542902,-0.00,-0.00,1.00,2.32,-4.64,-5.31
1777398911044,1542912,-0.01,-0.00,1.00,2.44,-4.64,-4.88
1777398911044,1542922,-0.00,-0.00,1.00,2.56,-4.64,-4.39
1777398911044,1542932,-0.01,-0.00,1.00,2.56,-4.76,-4.64
1777398911044,1542952,-0.01,-0.00,1.00,2.50,-4.70,-4.70
1777398911044,1542972,-0.00,-0.00,1.00,2.56,-4.70,-4.76
1777398911044,1542992,-0.00,-0.00,1.00,2.32,-4.58,-5.37
1777398911044,1543012,-0.01,-0.00,1.00,2.50,-4.64,-4.76
1777398911044,1543022,-0.01,-0.00,1.00,2.56,-4.64,-4.70
1777398911044,1543032,-0.01,-0.00,1.00,2.56,-4.64,-4.70
1777398911045,1543042,-0.01,-0.00,1.00,2.38,-4.64,-5.00
1777398911045,1543052,-0.00,-0.00,1.00,2.26,-4.70,-5.37
1777398911045,1543062,-0.01,-0.00,1.00,2.32,-4.70,-5.07
1777398911045,1543072,-0.01,-0.00,1.00,2.56,-4.64,-4.70
1777398911045,1543082,-0.01,-0.00,1.00,2.50,-4.70,-4.88
1777398911045,1543092,-0.01,-0.00,1.00,2.50,-4.64,-5.00
1777398911045,1543102,-0.01,-0.00,1.00,2.44,-4.64,-4.76
1777398911045,1543112,-0.01,-0.00,1.00,2.56,-4.76,-4.64
1777398911045,1543122,-0.01,-0.00,1.00,2.50,-4.70,-4.64
1777398911045,1543132,-0.01,-0.00,1.00,2.50,-4.70,-4.70
1777398911046,1543142,-0.01,-0.00,1.00,2.44,-4.64,-4.64
1777398911046,1543152,-0.01,-0.00,1.00,2.50,-4.64,-4.88
1777398911046,1543162,-0.01,-0.00,1.00,2.44,-4.64,-4.94
1777398911046,1543172,-0.00,-0.00,1.00,2.44,-4.58,-4.94
1777398911046,1543182,-0.01,-0.00,1.00,2.50,-4.64,-4.76
1777398911046,1543192,-0.01,-0.00,1.00,2.62,-4.64,-4.39
1777398911046,1543202,-0.00,-0.00,1.00,2.56,-4.70,-4.64
1777398911046,1543212,-0.01,-0.00,1.00,2.38,-4.64,-4.82
1777398911046,1543222,-0.01,-0.00,1.00,2.56,-4.70,-4.64
1777398911046,1543232,-0.01,-0.00,1.00,2.56,-4.58,-4.52
1777398911046,1543242,-0.00,-0.00,1.00,2.44,-4.64,-4.88
1777398911047,1543252,-0.00,-0.00,1.00,2.38,-4.52,-5.19
1777398911047,1543262,-0.01,-0.00,1.00,2.44,-4.64,-4.94
1777398911047,1543272,-0.01,-0.00,1.00,2.62,-4.70,-4.46
1777398911047,1543282,-0.00,-0.00,1.00,2.50,-4.70,-5.00
1777398911047,1543302,-0.00,-0.00,1.00,2.32,-4.58,-5.25
1777398911047,1543322,-0.00,-0.00,1.00,2.26,-4.64,-5.19
1777398911047,1543342,-0.01,-0.00,1.00,2.56,-4.70,-4.58
1777398911047,1543362,-0.01,-0.00,1.00,2.56,-4.70,-4.46
1777398911047,1543372,-0.01,-0.00,1.00,2.50,-4.64,-4.58
1777398911047,1543382,-0.00,-0.00,1.00,2.44,-4.76,-4.76
1777398911048,1543392,-0.00,-0.00,1.00,2.44,-4.70,-4.94
1777398911048,1543402,-0.00,-0.00,1.00,2.38,-4.64,-5.13
1777398911048,1543412,-0.01,-0.00,1.00,2.38,-4.64,-5.00
1777398911048,1543422,-0.00,-0.00,1.00,2.44,-4.58,-4.88
1777398911048,1543432,-0.01,-0.00,1.00,2.44,-4.70,-4.88
1777398911048,1543442,-0.01,-0.00,1.00,2.44,-4.70,-4.88
1777398911048,1543452,-0.01,-0.00,1.00,2.44,-4.70,-4.70
1777398911048,1543462,-0.01,-0.00,1.00,2.50,-4.70,-4.52
1777398911048,1543472,-0.01,-0.00,1.00,2.62,-4.70,-4.39
1777398911048,1543482,-0.01,-0.00,1.00,2.62,-4.70,-4.39
1777398911048,1543492,-0.01,-0.00,1.00,2.56,-4.76,-4.52
1777398911049,1543502,-0.01,-0.00,1.00,2.38,-4.70,-4.76
1777398911049,1543512,-0.00,-0.00,1.00,2.38,-4.58,-4.82
1777398911049,1543522,-0.01,-0.00,1.00,2.50,-4.64,-4.82
1777398911049,1543532,-0.01,-0.00,1.00,2.32,-4.70,-4.94
1777398911049,1543542,-0.01,-0.00,1.00,2.38,-4.58,-5.13
1777398911049,1543552,-0.00,-0.00,1.00,2.38,-4.58,-4.94
1777398911049,1543562,-0.00,-0.00,1.00,2.50,-4.70,-4.82
1777398911049,1543572,-0.00,-0.00,1.00,2.38,-4.76,-5.07
1777398911049,1543582,-0.00,-0.00,1.00,2.32,-4.70,-5.37
1777398911049,1543592,-0.01,-0.00,1.00,2.32,-4.64,-5.13
1777398911050,1543602,-0.00,-0.00,1.00,2.50,-4.64,-4.82
1777398911050,1543612,-0.01,-0.00,1.00,2.50,-4.64,-4.76
1777398911050,1543622,-0.01,-0.00,1.00,2.50,-4.64,-4.76
1777398911050,1543642,-0.00,-0.00,1.00,2.44,-4.70,-4.94
1777398911050,1543662,-0.01,-0.00,1.00,2.56,-4.64,-4.58
1777398911050,1543682,-0.01,-0.00,1.00,2.38,-4.70,-4.94
1777398911050,1543702,-0.00,-0.00,1.00,2.44,-4.70,-4.94
1777398911050,1543712,-0.01,-0.00,1.00,2.38,-4.64,-4.94
1777398911050,1543722,-0.00,-0.00,1.00,2.38,-4.70,-5.00
1777398911050,1543732,-0.00,-0.00,1.00,2.38,-4.82,-5.07
1777398911051,1543742,-0.00,-0.00,1.00,2.56,-4.70,-4.76
1777398911051,1543752,-0.01,-0.00,1.00,2.69,-4.76,-4.46
1777398911051,1543762,-0.01,-0.00,1.00,2.62,-4.70,-4.46
1777398911051,1543772,-0.01,-0.00,1.00,2.62,-4.70,-4.46
1777398911051,1543782,-0.01,-0.00,1.00,2.50,-4.76,-4.70
1777398911051,1543792,-0.01,-0.00,1.00,2.44,-4.70,-4.88
1777398911051,1543802,-0.00,-0.00,1.00,2.50,-4.70,-4.64
1777398911051,1543812,-0.01,-0.00,1.00,2.69,-4.76,-4.52
1777398911051,1543822,-0.00,-0.00,1.00,2.56,-4.76,-4.64
1777398911051,1543832,-0.00,-0.00,1.00,2.44,-4.76,-4.82
1777398911052,1543842,-0.00,-0.00,1.00,2.44,-4.64,-5.07
1777398911052,1543852,-0.00,-0.00,1.00,2.20,-4.58,-5.37
1777398911052,1543862,-0.00,-0.00,1.00,2.32,-4.70,-5.13
1777398911052,1543872,-0.01,-0.00,1.00,2.44,-4.70,-4.76
1777398911052,1543882,-0.01,-0.00,1.00,2.56,-4.64,-4.58
1777398911052,1543892,-0.01,-0.00,1.00,2.75,-4.70,-4.46
1777398911052,1543902,-0.00,-0.00,1.00,2.62,-4.64,-4.58
1777398911052,1543912,-0.00,-0.00,1.00,2.38,-4.64,-4.88
1777398911052,1543922,-0.00,-0.00,1.00,2.38,-4.70,-5.07
1777398911052,1543932,-0.00,-0.00,1.00,2.26,-4.64,-5.25
1777398911053,1543942,-0.01,-0.00,1.00,2.38,-4.76,-5.07
1777398911053,1543952,-0.01,-0.00,1.00,2.50,-4.70,-4.76
1777398911053,1543962,-0.00,-0.00,1.00,2.44,-4.64,-4.88
1777398911053,1543972,-0.00,-0.00,1.00,2.44,-4.70,-5.00
1777398911053,1543992,-0.00,-0.00,1.00,2.50,-4.76,-4.70
1777398911053,1544012,-0.01,-0.00,1.00,2.44,-4.70,-4.76
1777398911053,1544032,-0.00,-0.00,1.00,2.26,-4.58,-5.25
1777398911053,1544052,-0.00,-0.00,1.00,2.32,-4.64,-5.31
1777398911054,1544062,-0.01,-0.00,1.00,2.32,-4.70,-5.43
1777398911054,1544072,-0.00,-0.00,1.00,2.32,-4.70,-5.19
1777398911054,1544082,-0.00,-0.00,1.00,2.50,-4.64,-4.82
1777398911054,1544092,-0.00,-0.00,1.00,2.38,-4.76,-4.88
1777398911054,1544102,-0.00,-0.00,1.00,2.38,-4.64,-5.00
1777398911054,1544112,-0.00,-0.00,1.00,2.38,-4.70,-5.07
1777398911054,1544122,-0.00,-0.00,1.00,2.32,-4.64,-5.25
1777398911054,1544132,-0.01,-0.00,1.00,2.38,-4.70,-5.13
1777398911054,1544142,-0.00,-0.00,1.00,2.38,-4.70,-5.07
1777398911054,1544152,-0.00,-0.00,1.00,2.32,-4.76,-5.07
1777398911054,1544162,-0.01,-0.00,1.00,2.44,-4.58,-5.07
1777398911055,1544172,-0.00,-0.00,1.00,2.44,-4.76,-4.76
1777398911055,1544182,-0.01,-0.00,1.00,2.56,-4.70,-4.52
1777398911055,1544192,-0.01,-0.00,1.00,2.62,-4.64,-4.64
1777398911055,1544202,-0.00,-0.00,1.00,2.44,-4.64,-4.82
1777398911055,1544212,-0.01,-0.00,1.00,2.44,-4.70,-4.88
1777398911055,1544222,-0.00,-0.00,1.00,2.50,-4.70,-4.88
1777398911055,1544232,-0.00,-0.00,1.00,2.44,-4.64,-4.82
1777398911055,1544242,-0.00,-0.00,1.00,2.50,-4.70,-4.82
1777398911055,1544252,-0.00,-0.00,1.00,2.38,-4.64,-4.88
1777398911055,1544262,-0.01,-0.00,1.00,2.44,-4.64,-4.94
1777398911056,1544272,-0.00,-0.00,1.00,2.50,-4.64,-4.88
1777398911056,1544282,-0.01,-0.00,1.00,2.44,-4.76,-4.88
1777398911056,1544292,-0.00,-0.00,1.00,2.50,-4.64,-4.82
1777398911056,1544302,-0.01,-0.00,1.00,2.50,-4.70,-4.88
1777398911056,1544312,-0.00,-0.00,1.00,2.38,-4.64,-5.00
1777398911056,1544332,-0.01,-0.00,1.00,2.50,-4.70,-4.64
1777398911056,1544352,-0.01,-0.00,1.00,2.44,-4.70,-4.88
1777398911056,1544372,-0.01,-0.00,1.00,2.62,-4.70,-4.64
1777398911056,1544392,-0.00,-0.00,1.00,2.62,-4.70,-4.46
1777398911056,1544402,-0.01,-0.00,1.00,2.56,-4.70,-4.46
1777398911057,1544412,-0.01,-0.00,1.00,2.69,-4.58,-4.33
1777398911057,1544422,-0.01,-0.00,1.00,2.62,-4.70,-4.39
1777398911057,1544432,-0.01,-0.00,1.00,2.50,-4.76,-4.64
1777398911057,1544442,-0.01,-0.00,1.00,2.56,-4.70,-4.52
1777398911057,1544452,-0.01,-0.00,1.00,2.62,-4.82,-4.33
1777398911057,1544462,-0.01,-0.00,1.00,2.56,-4.70,-4.58
1777398911057,1544472,-0.00,-0.00,1.00,2.50,-4.64,-4.94
1777398911057,1544482,-0.00,-0.00,1.00,2.32,-4.70,-5.07
1777398911057,1544492,-0.01,-0.00,1.00,2.26,-4.58,-5.25
1777398911057,1544502,-0.01,-0.00,1.00,2.32,-4.64,-5.00
1777398911057,1544512,-0.00,-0.00,1.00,2.44,-4.76,-4.76
1777398911058,1544522,-0.01,-0.00,1.00,2.50,-4.70,-4.64
1777398911058,1544532,-0.01,-0.00,1.00,2.56,-4.70,-4.64
1777398911058,1544542,-0.01,-0.00,1.00,2.50,-4.70,-4.82
1777398911058,1544552,-0.01,-0.00,1.00,2.44,-4.76,-4.94
1777398911058,1544562,-0.00,-0.00,1.00,2.38,-4.64,-5.13
1777398911058,1544572,-0.00,-0.00,1.00,2.32,-4.70,-5.31
1777398911058,1544582,-0.01,-0.00,1.00,2.26,-4.64,-5.25
1777398911058,1544592,-0.00,-0.00,1.00,2.26,-4.64,-5.37
1777398911058,1544602,-0.00,-0.00,1.00,2.20,-4.58,-5.37
1777398911058,1544612,-0.00,-0.00,1.00,2.32,-4.64,-5.19
1777398911059,1544622,-0.01,-0.00,1.00,2.50,-4.70,-4.88
1777398911059,1544632,-0.01,-0.00,1.00,2.69,-4.70,-4.39
1777398911059,1544642,-0.00,-0.00,1.00,2.56,-4.70,-4.52
1777398911059,1544652,-0.00,-0.00,1.00,2.50,-4.70,-4.70
1777398911059,1544662,-0.00,-0.00,1.00,2.50,-4.70,-5.19
1777398911059,1544682,-0.01,-0.00,1.00,2.32,-4.70,-5.31
1777398911059,1544702,-0.00,-0.00,1.00,2.32,-4.70,-5.13
1777398911059,1544722,-0.01,-0.00,1.00,2.50,-4.76,-4.76
1777398911059,1544742,-0.00,-0.00,1.00,2.26,-4.70,-5.37
1777398911059,1544752,-0.00,-0.00,1.00,2.26,-4.82,-5.31
1777398911059,1544762,-0.00,-0.00,1.00,2.20,-4.64,-5.37
1777398911060,1544772,-0.00,-0.00,1.00,2.26,-4.64,-5.31
1777398911060,1544782,-0.00,-0.00,1.00,2.20,-4.70,-5.25
1777398911060,1544792,-0.00,-0.00,1.00,2.32,-4.64,-4.94
1777398911060,1544802,-0.01,-0.00,1.00,2.62,-4.70,-4.52
1777398911060,1544812,-0.00,-0.00,1.00,2.38,-4.76,-4.88
1777398911060,1544822,-0.01,-0.00,1.00,2.26,-4.58,-5.37
1777398911060,1544832,-0.00,-0.00,1.00,2.32,-4.64,-5.31
1777398911060,1544842,-0.00,-0.00,1.00,2.26,-4.58,-5.19
1777398911060,1544852,-0.01,-0.00,1.00,2.50,-4.64,-4.82
1777398911060,1544862,-0.01,-0.00,1.00,2.62,-4.76,-4.39
1777398911061,1544872,-0.01,-0.00,1.00,2.56,-4.64,-4.52
1777398911061,1544882,-0.00,-0.00,1.00,2.44,-4.70,-4.76
1777398911061,1544892,-0.00,-0.00,1.00,2.44,-4.70,-4.88
1777398911061,1544902,-0.00,-0.00,1.00,2.50,-4.70,-4.82
1777398911061,1544912,-0.00,-0.00,1.00,2.26,-4.70,-5.07
1777398911061,1544922,-0.00,-0.00,1.00,2.26,-4.64,-5.25
1777398911061,1544932,-0.00,-0.00,1.00,2.32,-4.58,-5.13
1777398911061,1544942,-0.01,-0.00,1.00,2.44,-4.70,-4.82
1777398911061,1544952,-0.01,-0.00,1.00,2.50,-4.64,-4.82
1777398911061,1544962,-0.01,-0.00,1.00,2.50,-4.64,-4.82
1777398911062,1544972,-0.01,-0.00,1.00,2.38,-4.70,-4.82
1777398911062,1544982,-0.00,-0.00,1.00,2.44,-4.70,-4.94
1777398911062,1544992,-0.00,-0.00,1.00,2.32,-4.64,-5.19
1777398911062,1545002,-0.00,-0.00,1.00,2.26,-4.64,-5.37
1777398911062,1545022,-0.01,-0.00,1.00,2.50,-4.76,-4.82
1777398911062,1545042,-0.00,-0.00,1.00,2.38,-4.70,-4.94
1777398911062,1545062,-0.00,-0.00,1.00,2.44,-4.64,-4.94
1777398911062,1545082,-0.00,-0.00,1.00,2.44,-4.64,-4.82
1777398911062,1545092,-0.01,-0.00,1.00,2.62,-4.76,-4.46
1777398911062,1545102,-0.00,-0.00,1.00,2.69,-4.70,-4.46
1777398911063,1545112,-0.01,-0.00,1.01,2.62,-4.76,-4.46
1777398911063,1545122,-0.00,-0.00,1.00,2.56,-4.82,-4.39
1777398911063,1545132,-0.01,-0.00,1.00,2.69,-4.70,-4.39
1777398911063,1545142,-0.01,-0.00,0.99,2.56,-4.64,-4.33
1777398911063,1545152,-0.00,-0.00,1.00,2.69,-4.70,-4.33
1777398911063,1545162,-0.01,-0.00,1.01,2.50,-4.64,-4.52
1777398911063,1545172,-0.01,-0.00,1.00,2.50,-4.64,-4.82
1777398911063,1545182,-0.00,-0.00,1.00,2.50,-4.76,-4.76
1777398911063,1545192,-0.01,-0.00,1.00,2.50,-4.70,-4.76
1777398911063,1545202,-0.01,-0.00,1.00,2.44,-4.64,-4.76
1777398911064,1545212,-0.00,-0.00,1.00,2.44,-4.70,-4.88
1777398911064,1545222,-0.00,-0.00,1.00,2.50,-4.70,-4.70
1777398911064,1545232,-0.00,-0.00,1.00,2.56,-4.76,-4.52
1777398911064,1545242,-0.01,-0.00,1.00,2.44,-4.70,-4.88
1777398911064,1545252,-0.00,-0.00,1.00,2.32,-4.64,-5.25
1777398911064,1545262,-0.01,-0.00,1.00,2.56,-4.70,-4.88
1777398911064,1545272,-0.01,-0.00,1.00,2.56,-4.76,-4.46
1777398911064,1545282,-0.01,-0.00,1.00,2.56,-4.70,-4.70
1777398911064,1545292,-0.01,-0.00,1.00,2.44,-4.70,-4.82
1777398911064,1545302,-0.00,-0.00,1.00,2.44,-4.58,-5.13
1777398911065,1545312,-0.00,-0.00,1.00,2.32,-4.64,-5.43
1777398911065,1545322,-0.00,-0.00,1.00,2.32,-4.64,-5.37
1777398911065,1545332,-0.00,-0.00,1.00,2.38,-4.64,-5.25
1777398911065,1545342,-0.01,-0.00,1.00,2.38,-4.70,-4.82
1777398911065,1545352,-0.01,-0.00,1.00,2.62,-4.64,-4.52
1777398911065,1545372,-0.01,-0.00,1.00,2.50,-4.76,-4.76
1777398911065,1545392,-0.01,-0.00,1.00,2.38,-4.64,-5.00
1777398911065,1545412,-0.01,-0.00,1.00,2.62,-4.70,-4.46
1777398911065,1545432,-0.01,-0.00,1.00,2.62,-4.70,-4.58
1777398911066,1545442,-0.01,-0.00,1.00,2.69,-4.70,-4.70
1777398911066,1545452,-0.01,-0.00,1.00,2.62,-4.76,-4.58
1777398911066,1545462,-0.01,-0.00,1.00,2.81,-4.76,-4.52
1777398911066,1545472,-0.00,-0.00,1.00,2.50,-4.76,-4.88
1777398911066,1545482,-0.00,-0.00,1.00,2.32,-4.70,-5.37
1777398911066,1545492,-0.01,0.00,1.01,2.50,-4.70,-5.13
1777398911066,1545502,-0.00,-0.00,1.00,2.50,-4.70,-4.70
1777398911066,1545512,-0.01,-0.00,1.00,2.56,-4.64,-4.70
1777398911066,1545522,-0.01,-0.00,1.00,2.50,-4.64,-4.76
1777398911066,1545532,-0.00,-0.00,1.00,2.32,-4.76,-5.00
1777398911067,1545542,-0.01,-0.00,1.00,2.44,-4.58,-5.13
1777398911067,1545552,-0.00,-0.00,1.00,2.38,-4.70,-5.07
1777398911067,1545562,-0.00,-0.00,1.00,2.44,-4.64,-4.94
1777398911067,1545572,-0.01,-0.00,1.00,2.38,-4.70,-5.13
1777398911067,1545582,-0.00,-0.00,1.00,2.26,-4.64,-5.31
1777398911067,1545592,-0.00,-0.00,1.00,2.38,-4.64,-5.07
1777398911067,1545602,-0.01,-0.00,1.00,2.44,-4.64,-4.88
1777398911067,1545612,-0.01,-0.00,1.00,2.32,-4.70,-4.94
1777398911067,1545622,-0.01,-0.00,1.00,2.44,-4.58,-5.00
1777398911068,1545632,-0.01,-0.00,1.00,2.44,-4.64,-4.82
1777398911068,1545642,-0.00,-0.00,1.00,2.44,-4.70,-4.76
1777398911068,1545652,-0.00,-0.00,1.00,2.38,-4.64,-4.76
1777398911068,1545662,-0.00,-0.00,1.00,2.32,-4.58,-4.94
1777398911068,1545672,-0.00,-0.00,1.00,2.32,-4.58,-5.13
1777398911068,1545682,-0.00,-0.00,1.00,2.26,-4.58,-5.31
1777398911068,1545692,-0.00,-0.00,1.00,2.38,-4.58,-5.19
1777398911068,1545712,-0.01,-0.00,1.00,2.62,-4.70,-4.39
1777398911068,1545732,-0.01,-0.00,1.00,2.69,-4.64,-4.33
1777398911069,1545752,-0.00,-0.00,1.00,2.26,-4.76,-5.25
1777398911069,1545772,-0.00,-0.00,1.00,2.26,-4.70,-5.43
1777398911069,1545782,-0.01,-0.00,1.00,2.38,-4.58,-5.19
1777398911069,1545792,-0.01,-0.00,1.00,2.44,-4.64,-4.88
1777398911069,1545802,-0.01,-0.00,1.00,2.50,-4.70,-5.00
1777398911069,1545812,-0.01,-0.00,1.00,2.38,-4.64,-4.94
1777398911069,1545822,-0.00,-0.00,1.00,2.44,-4.70,-4.88
1777398911069,1545832,-0.00,-0.00,1.00,2.50,-4.76,-4.82
1777398911069,1545842,-0.01,-0.00,1.00,2.50,-4.64,-4.82
1777398911069,1545852,-0.00,-0.00,1.00,2.44,-4.58,-4.88
1777398911069,1545862,-0.00,-0.00,1.00,2.50,-4.64,-5.00
1777398911070,1545872,-0.00,-0.00,1.00,2.32,-4.70,-5.25
1777398911070,1545882,-0.01,-0.00,1.00,2.44,-4.58,-4.94
1777398911070,1545892,-0.01,-0.00,1.00,2.56,-4.64,-4.52
1777398911070,1545902,-0.00,-0.00,1.00,2.44,-4.64,-4.82
1777398911070,1545912,-0.00,-0.00,1.00,2.38,-4.70,-5.19
1777398911070,1545922,-0.01,-0.00,1.00,2.50,-4.70,-4.82
1777398911070,1545932,-0.01,-0.00,1.00,2.62,-4.70,-4.39
1777398911070,1545942,-0.00,-0.00,1.00,2.56,-4.76,-4.52
1777398911070,1545952,-0.01,-0.00,1.00,2.62,-4.64,-4.76
1777398911070,1545962,-0.00,-0.00,1.00,2.26,-4.64,-4.76
1777398911070,1545972,-0.00,-0.00,1.00,2.38,-4.64,-4.88
1777398911071,1545982,-0.01,-0.00,1.00,2.38,-4.58,-4.94
1777398911071,1545992,-0.01,-0.00,1.00,2.44,-4.64,-5.07
1777398911071,1546002,-0.01,-0.00,0.99,2.32,-4.70,-5.19
1777398911071,1546012,-0.01,-0.00,1.00,2.26,-4.70,-5.43
1777398911071,1546022,-0.01,-0.00,1.00,2.56,-4.64,-4.88
1777398911071,1546032,-0.00,-0.00,0.99,2.50,-4.82,-4.46
1777398911071,1546042,-0.01,0.00,1.01,2.69,-4.58,-5.07
1777398911071,1546062,-0.00,-0.00,1.00,2.44,-4.58,-4.52
1777398911071,1546082,-0.01,-0.00,0.99,2.44,-4.64,-4.88
1777398911071,1546102,-0.01,-0.00,1.00,2.44,-4.70,-5.07
1777398911072,1546112,-0.01,-0.00,1.00,2.38,-4.64,-5.19
1777398911072,1546122,-0.00,0.00,1.01,2.26,-4.52,-5.31
1777398911072,1546132,-0.00,-0.00,1.00,2.32,-4.70,-5.00
1777398911072,1546142,-0.01,0.00,1.00,2.69,-4.58,-4.76
1777398911072,1546152,-0.00,-0.00,1.00,2.26,-4.70,-5.00
1777398911072,1546162,-0.00,-0.00,1.00,2.32,-4.64,-5.37
1777398911072,1546172,-0.01,-0.00,1.01,2.44,-4.70,-5.00
1777398911072,1546182,-0.00,-0.00,1.00,2.50,-4.82,-4.52
1777398911072,1546192,-0.01,-0.00,0.99,2.75,-4.52,-4.58
1777398911072,1546202,-0.01,-0.00,1.00,2.44,-4.88,-4.58
1777398911072,1546212,-0.01,-0.01,0.99,2.56,-4.76,-4.58
1777398911073,1546222,-0.01,0.00,1.02,2.75,-4.64,-4.52
1777398911073,1546232,-0.01,0.00,1.01,2.20,-4.94,-4.88
1777398911073,1546242,-0.00,-0.00,1.00,2.44,-4.58,-5.37
1777398911073,1546252,-0.01,-0.00,1.00,2.50,-4.64,-4.88
1777398911073,1546262,-0.01,-0.00,1.00,2.56,-4.70,-4.27
1777398911073,1546272,-0.01,-0.00,1.00,2.69,-4.64,-4.76
1777398911073,1546282,-0.00,-0.00,1.00,2.26,-4.64,-5.19
1777398911073,1546292,-0.01,0.00,1.00,2.56,-4.64,-4.70
1777398911073,1546302,-0.00,-0.01,1.00,2.62,-4.76,-4.27
1777398911073,1546312,-0.01,0.00,1.00,2.62,-4.76,-4.64
1777398911074,1546322,0.00,-0.01,1.00,2.50,-4.58,-5.07
1777398911074,1546332,-0.01,-0.00,0.99,2.32,-4.70,-5.13
1777398911074,1546342,-0.00,-0.00,1.01,2.44,-4.64,-5.25
1777398911074,1546352,-0.00,-0.00,1.00,2.08,-4.76,-5.07
1777398911074,1546362,-0.01,-0.00,1.00,2.93,-4.46,-4.82
1777398911074,1546372,-0.01,-0.00,1.00,2.32,-4.76,-4.82
1777398911074,1546382,-0.00,-0.00,1.00,2.50,-4.70,-4.64
1777398911074,1546402,-0.01,0.00,1.00,2.50,-4.58,-4.82
1777398911074,1546422,-0.00,-0.00,1.00,2.26,-4.64,-5.13
1777398911074,1546442,-0.01,-0.00,1.00,2.38,-4.76,-4.76
1777398911075,1546462,-0.01,-0.00,1.00,2.50,-4.64,-4.39
1777398911075,1546472,-0.01,-0.00,1.00,2.56,-4.64,-4.46
1777398911075,1546482,-0.00,-0.00,1.00,2.26,-4.76,-4.76
1777398911075,1546492,-0.00,-0.00,1.00,2.20,-4.70,-5.25
1777398911075,1546502,-0.01,-0.00,1.00,2.32,-4.64,-4.94
1777398911075,1546512,-0.01,-0.00,1.00,2.50,-4.64,-4.52
1777398911075,1546522,-0.01,-0.00,1.00,2.38,-4.70,-4.70
1777398911075,1546532,-0.01,-0.00,1.00,2.32,-4.58,-4.88
1777398911075,1546542,-0.00,-0.00,1.00,2.32,-4.64,-4.94
1777398911075,1546552,-0.00,-0.00,1.00,2.20,-4.64,-5.13
1777398911076,1546562,-0.00,-0.00,1.00,2.32,-4.64,-5.00
1777398911076,1546572,-0.00,-0.00,1.00,2.38,-4.58,-4.88
1777398911076,1546582,-0.01,-0.00,1.00,2.38,-4.64,-5.07
1777398911076,1546592,-0.01,-0.00,1.00,2.20,-4.64,-5.37
1777398911076,1546602,-0.01,-0.00,1.00,2.26,-4.64,-5.31
1777398911076,1546612,-0.01,-0.00,1.00,2.26,-4.70,-5.25
1777398911076,1546622,-0.01,-0.00,1.00,2.44,-4.64,-4.88
1777398911076,1546632,-0.01,-0.00,1.00,2.44,-4.76,-4.64
1777398911076,1546642,-0.01,-0.00,1.00,2.44,-4.76,-4.70
1777398911077,1546652,-0.01,-0.00,1.00,2.38,-4.70,-4.82
1777398911077,1546662,-0.01,-0.00,1.00,2.38,-4.64,-4.94
1777398911077,1546672,-0.00,-0.00,1.00,2.32,-4.70,-5.19
1777398911077,1546682,-0.00,-0.00,1.00,2.32,-4.64,-5.19
1777398911077,1546692,-0.01,-0.00,1.00,2.38,-4.64,-5.07
1777398911077,1546702,-0.01,-0.00,1.00,2.44,-4.70,-4.82
1777398911077,1546712,-0.01,-0.00,1.00,2.50,-4.70,-4.52
1777398911077,1546722,-0.01,-0.00,1.00,2.69,-4.70,-4.33
1777398911077,1546732,-0.00,-0.00,1.00,2.62,-4.70,-4.52
1777398911077,1546752,-0.00,-0.00,1.00,2.50,-4.64,-4.88
1777398911078,1546772,-0.00,-0.00,1.00,2.50,-4.64,-4.94
1777398911078,1546792,-0.01,-0.00,1.00,2.38,-4.64,-4.88
1777398911078,1546802,-0.01,-0.00,1.00,2.44,-4.64,-4.82
1777398911078,1546812,-0.00,-0.00,1.00,2.38,-4.70,-5.07
1777398911078,1546822,-0.00,-0.00,1.00,2.20,-4.64,-5.37
1777398911078,1546832,-0.01,-0.00,1.00,2.44,-4.64,-4.94
1777398911078,1546842,-0.01,-0.00,1.00,2.62,-4.70,-4.33
1777398911078,1546852,-0.00,-0.00,1.00,2.44,-4.70,-4.76
1777398911078,1546862,-0.00,-0.00,1.00,2.26,-4.70,-5.31
1777398911079,1546872,-0.01,-0.00,1.00,2.32,-4.70,-5.13
1777398911079,1546882,-0.01,-0.00,1.00,2.44,-4.64,-4.94
1777398911079,1546892,-0.00,-0.00,1.00,2.38,-4.70,-5.00
1777398911079,1546902,-0.00,-0.00,1.00,2.32,-4.64,-5.25
1777398911079,1546912,-0.01,-0.00,1.00,2.38,-4.64,-5.13
1777398911079,1546922,-0.00,-0.00,1.00,2.50,-4.70,-4.88
1777398911079,1546932,-0.01,-0.00,1.00,2.56,-4.76,-4.70
1777398911079,1546942,-0.01,-0.00,1.00,2.56,-4.76,-4.46
1777398911079,1546952,-0.01,-0.00,1.00,2.56,-4.70,-4.39
1777398911079,1546962,-0.01,-0.00,1.00,2.62,-4.76,-4.46
1777398911079,1546972,-0.00,-0.00,1.00,2.56,-4.76,-4.52
1777398911080,1546982,-0.00,-0.00,1.00,2.50,-4.76,-4.64
1777398911080,1546992,-0.00,-0.00,1.00,2.44,-4.64,-4.82
1777398911080,1547002,-0.00,-0.00,1.00,2.44,-4.70,-4.94
1777398911080,1547012,-0.01,-0.00,1.00,2.38,-4.76,-4.88
1777398911080,1547022,-0.01,-0.00,1.00,2.50,-4.70,-4.94
1777398911080,1547032,-0.00,-0.00,1.00,2.38,-4.58,-5.13
1777398911080,1547042,-0.00,-0.00,1.00,2.26,-4.58,-5.37
1777398911080,1547052,-0.00,-0.00,1.00,2.38,-4.64,-4.94
1777398911080,1547062,-0.01,-0.00,1.00,2.56,-4.70,-4.58
1777398911080,1547072,-0.00,-0.00,1.00,2.44,-4.58,-4.94
1777398911081,1547092,0.01,-0.07,1.02,-0.79,-5.86,1.04
1777398911081,1547112,-0.01,-0.01,1.00,2.44,-4.76,5.00
1777398911081,1547132,0.00,-0.01,1.00,3.85,-4.39,3.54
1777398911081,1547152,0.03,-0.04,1.00,1.65,-4.94,-5.49
1777398911081,1547162,0.10,-0.15,1.00,-2.26,-6.84,0.67
1777398911081,1547172,0.06,-0.15,1.00,2.38,-4.76,11.78
1777398911081,1547182,0.01,-0.13,1.00,3.17,-4.46,20.63
1777398911081,1547192,-0.02,-0.16,1.01,5.25,-3.66,28.20
1777398911081,1547202,-0.11,-0.37,1.00,11.23,-1.10,31.43
1777398911081,1547212,-0.16,-0.51,1.02,14.22,1.59,35.46
1777398911081,1547222,-0.25,-0.08,0.88,10.86,3.17,50.84
1777398911082,1547232,0.36,1.19,1.08,-18.49,-17.52,59.69
1777398911082,1547242,0.05,0.17,1.02,4.27,-5.00,43.46
1777398911082,1547252,-0.26,-0.01,1.00,20.39,8.30,13.12
1777398911082,1547262,-0.12,-0.04,1.03,8.73,7.26,13.37
1777398911082,1547272,-0.08,-0.05,1.16,4.21,11.66,31.74
1777398911082,1547282,-0.04,-0.10,1.11,4.39,6.53,39.73
1777398911082,1547292,0.06,-0.09,1.06,7.63,4.09,39.06
1777398911082,1547302,0.10,-0.07,1.03,9.52,11.47,31.86
1777398911082,1547312,-0.07,0.05,1.08,13.55,26.79,24.29
1777398911082,1547322,0.00,-0.05,1.20,26.73,34.48,22.28
1777398911083,1547332,0.05,0.05,1.17,47.12,29.48,13.49
1777398911083,1547342,-0.05,0.25,1.02,55.91,33.26,3.72
1777398911083,1547352,-0.15,0.38,0.93,44.49,42.97,2.87
1777398911083,1547362,-0.01,0.30,0.98,58.78,49.87,4.03
1777398911083,1547372,-0.07,0.21,1.15,89.36,37.72,-2.99
1777398911083,1547382,-0.07,0.15,1.06,106.57,9.03,-9.16
1777398911083,1547392,-0.01,0.08,1.05,109.37,-7.75,-12.88
1777398911083,1547402,0.05,0.29,1.01,103.03,-15.32,-19.10
1777398911083,1547412,0.09,0.36,0.98,60.36,-18.31,-20.75
1777398911084,1547432,0.13,0.05,1.07,-66.28,-4.33,-10.68
1777398911084,1547452,0.24,0.14,1.13,-75.44,60.24,-42.66
1777398911084,1547472,-0.09,0.00,1.28,-89.11,96.56,-27.95
1777398911084,1547492,-0.08,-0.22,1.15,-50.60,92.16,0.67
1777398911084,1547502,-0.15,-0.20,1.15,-28.26,97.29,-1.22
1777398911084,1547512,-0.20,0.01,1.05,-8.85,114.75,-5.98
1777398911084,1547522,-0.23,0.10,0.99,-0.55,141.05,-4.70
1777398911084,1547532,-0.30,0.10,1.04,-5.49,164.06,-3.78
1777398911084,1547542,-0.35,0.09,1.03,-17.52,174.62,-2.01
1777398911084,1547552,-0.30,0.02,0.92,-33.39,171.08,4.03
1777398911085,1547562,-0.36,0.08,0.75,-55.60,160.58,6.47
1777398911085,1547572,-0.36,-0.05,0.55,-106.57,115.66,-3.05
1777398911085,1547582,-0.37,-0.18,0.58,-130.62,93.51,-16.60
1777398911085,1547592,-0.40,-0.30,0.55,-109.50,114.07,-15.26
1777398911085,1547602,-0.50,-0.24,0.59,-88.38,138.55,1.53
1777398911085,1547612,-0.75,-0.07,0.60,-85.88,127.87,8.67
1777398911085,1547622,-0.68,-0.15,0.62,-99.73,67.63,5.37
1777398911085,1547632,-0.45,-0.29,0.77,-106.51,20.45,-1.16
1777398911085,1547642,-0.38,-0.17,0.71,-99.24,10.25,-5.80
1777398911086,1547652,-0.41,-0.09,0.67,-105.22,13.31,-7.08
1777398911086,1547662,-0.39,-0.09,0.65,-115.36,15.32,-11.60
1777398911086,1547672,-0.41,-0.12,0.66,-120.97,16.24,-16.97
1777398911086,1547682,-0.47,-0.13,0.64,-127.14,19.84,-19.04
1777398911086,1547692,-0.48,-0.15,0.51,-126.10,31.07,-13.67
1777398911086,1547702,-0.58,-0.26,0.73,-125.43,44.43,-14.65
1777398911086,1547712,-0.68,-0.33,0.85,-98.57,43.21,-18.98
1777398911086,1547722,-0.62,-0.29,0.75,-71.29,22.22,-24.48
1777398911086,1547732,-0.55,-0.27,0.59,-60.73,0.55,-29.17
1777398911087,1547742,-0.53,-0.25,0.47,-71.96,-6.04,-33.08
1777398911087,1547752,-0.52,-0.24,0.54,-86.30,3.11,-34.48
1777398911087,1547762,-0.50,-0.20,0.71,-83.01,13.12,-27.47
1777398911087,1547782,-0.57,-0.23,0.79,-12.15,6.47,-15.50
1777398911087,1547802,-0.59,-0.28,0.79,15.26,10.44,-4.39
1777398911087,1547822,-0.52,-0.34,0.74,44.62,8.67,2.26
1777398911087,1547842,-0.60,-0.37,0.76,84.72,4.15,1.10
1777398911087,1547852,-0.62,-0.35,0.81,113.16,3.85,1.28
1777398911087,1547862,-0.64,-0.34,0.90,144.71,6.04,8.61
1777398911088,1547872,-0.66,-0.27,0.96,175.66,10.01,21.00
1777398911088,1547882,-0.64,-0.20,1.05,196.53,17.46,37.78
1777398911088,1547892,-0.61,-0.22,1.08,209.05,27.53,52.00
1777398911088,1547902,-0.54,-0.17,1.05,219.42,38.94,52.92
1777398911088,1547912,-0.68,-0.13,1.05,241.27,54.57,41.38
1777398911088,1547922,-0.72,-0.14,1.10,252.75,56.76,26.98
1777398911088,1547932,-0.71,0.01,0.96,246.15,45.04,14.16
1777398911088,1547942,-0.73,0.12,0.92,197.51,44.43,17.64
1777398911088,1547952,-0.70,0.11,0.89,120.48,28.63,24.41
1777398911088,1547962,-0.60,-0.01,0.79,63.17,5.19,31.43
1777398911089,1547972,-0.60,-0.02,0.77,45.84,-5.74,35.95
1777398911089,1547982,-0.51,-0.08,0.69,40.83,-13.61,37.66
1777398911089,1547992,-0.51,-0.03,0.69,47.49,-13.31,35.58
1777398911089,1548002,-0.53,0.05,0.74,59.33,-12.08,31.98
1777398911089,1548012,-0.54,0.06,0.86,62.81,-18.80,30.94
1777398911089,1548022,-0.51,0.15,0.79,52.92,-35.03,26.92
1777398911089,1548032,-0.55,0.15,0.82,37.05,-42.48,23.99
1777398911089,1548042,-0.56,0.17,0.88,27.77,-43.58,25.39
1777398911089,1548052,-0.60,0.21,0.84,39.55,-51.03,28.63
1777398911089,1548062,-0.61,0.23,0.77,57.37,-55.05,36.01
1777398911089,1548072,-0.61,0.21,0.75,59.39,-54.87,40.28
1777398911090,1548082,-0.56,0.13,0.78,49.62,-53.77,42.36
1777398911090,1548092,-0.53,0.09,0.77,41.69,-52.92,42.72
1777398911090,1548102,-0.48,0.04,0.67,30.76,-50.90,39.31
1777398911090,1548122,-0.40,-0.04,0.63,1.83,-34.12,15.32
1777398911090,1548142,-0.48,0.16,0.91,-0.43,-24.72,-3.78
1777398911090,1548162,-0.60,0.33,1.00,3.48,-30.58,-2.99
1777398911090,1548182,-0.25,0.07,0.76,9.28,-40.83,3.42
1777398911090,1548192,-0.46,0.22,0.92,10.80,-35.89,-5.92
1777398911090,1548202,-0.56,0.40,0.78,47.67,-15.99,-3.78
1777398911090,1548212,-0.55,0.28,0.81,53.41,-8.42,5.31
1777398911091,1548222,-0.56,0.32,0.84,56.09,-9.09,10.01
1777398911091,1548232,-0.50,0.38,0.83,74.52,-4.70,16.36
1777398911091,1548242,-0.42,0.18,0.54,100.16,7.87,19.29
1777398911091,1548252,-0.48,0.20,0.62,75.99,12.39,21.97
1777398911091,1548262,-0.44,0.44,0.49,140.44,77.82,14.47
1777398911091,1548272,-0.47,0.16,0.73,133.54,114.87,9.89
1777398911091,1548282,-0.32,0.00,0.80,61.22,86.18,19.59
1777398911091,1548292,-0.35,0.19,0.87,30.64,71.17,13.12
1777398911091,1548302,-0.40,0.23,0.83,46.45,80.26,-2.99
1777398911091,1548312,-0.42,0.27,0.63,69.27,105.10,-12.39
1777398911092,1548322,-0.47,0.21,0.54,47.30,150.70,-22.58
1777398911092,1548332,-0.56,0.23,0.56,15.44,191.77,-33.87
1777398911092,1548342,-0.59,0.24,0.57,-4.39,206.73,-45.78
1777398911092,1548352,-0.66,0.29,0.42,-3.97,215.33,-51.45
1777398911092,1548362,-0.72,0.36,0.59,0.55,243.29,-57.01
1777398911092,1548372,-0.78,0.39,0.55,4.94,249.57,-58.47
1777398911092,1548382,-0.79,0.30,0.53,4.88,230.83,-65.25
1777398911092,1548392,-0.80,0.21,0.50,9.03,215.45,-79.71
1777398911092,1548402,-1.10,0.38,0.79,7.63,206.91,-95.09
1777398911092,1548412,-1.06,0.12,0.81,-31.31,132.02,-91.19
1777398911093,1548422,-0.93,0.55,0.60,-49.99,32.59,-78.12
1777398911093,1548432,-0.75,0.36,0.77,-55.97,-18.62,-51.57
1777398911093,1548442,-0.89,0.50,0.61,-31.56,-58.53,-43.40
1777398911093,1548452,-0.70,0.30,0.37,-14.47,-74.28,-24.84
1777398911093,1548472,-0.68,0.22,0.50,-7.75,-64.09,-43.40
1777398911093,1548492,-0.82,0.20,0.50,-17.03,-20.26,-42.72
1777398911093,1548512,-0.99,0.24,0.52,-2.50,34.91,-42.60
1777398911093,1548532,-1.11,0.33,0.52,19.41,63.60,-42.66
1777398911093,1548542,-1.10,0.33,0.47,29.60,68.54,-36.07
1777398911094,1548552,-1.03,0.31,0.30,15.44,62.32,-36.87
1777398911094,1548562,-0.89,0.38,0.16,1.89,55.36,-38.15
1777398911094,1548572,-0.72,0.32,0.14,-16.30,52.37,-38.64
1777398911094,1548582,-0.59,0.22,0.25,-30.94,55.79,-44.07
1777398911094,1548592,-0.65,0.14,0.39,-28.69,65.43,-46.94
1777398911094,1548602,-0.74,0.06,0.48,-13.85,75.93,-51.45
1777398911094,1548612,-0.88,0.03,0.48,7.51,86.30,-64.64
1777398911094,1548622,-1.00,0.01,0.41,25.27,91.80,-79.71
1777398911094,1548632,-1.05,0.01,0.41,32.96,92.71,-94.12
1777398911095,1548642,-0.92,-0.18,0.42,33.33,89.90,-101.62
1777398911095,1548652,-0.71,-0.14,0.27,23.74,84.72,-90.64
1777398911095,1548662,-0.65,-0.02,0.37,-11.35,69.46,-91.55
1777398911095,1548672,-0.67,0.06,0.34,-26.79,50.78,-112.61
1777398911095,1548682,-0.54,0.24,0.26,-7.45,44.19,-129.39
1777398911095,1548692,-0.53,0.16,0.28,11.11,38.09,-115.54
1777398911095,1548702,-0.67,-0.01,0.39,27.16,31.80,-88.32
1777398911095,1548712,-1.00,-0.31,0.65,41.14,15.99,-74.83
1777398911096,1548722,-1.25,-0.13,0.42,51.94,-12.15,-73.79
1777398911096,1548732,-1.29,-0.34,0.58,57.74,-28.75,-66.16
1777398911096,1548742,-1.11,-0.25,0.35,68.36,-48.77,-85.88
1777398911096,1548752,-0.84,-0.28,0.28,77.82,-51.33,-117.80
1777398911096,1548762,-0.70,-0.23,0.13,89.23,-44.01,-146.42
1777398911096,1548772,-0.69,-0.15,0.10,91.80,-30.03,-158.08
1777398911096,1548782,-0.80,-0.09,0.17,96.44,-7.51,-155.76
1777398911096,1548792,-1.07,-0.16,0.35,91.55,12.51,-128.78
1777398911096,1548812,-1.30,-0.18,0.44,52.61,-28.99,-131.77
1777398911097,1548832,-0.86,-0.20,0.39,62.68,-53.59,-106.32
1777398911097,1548852,-0.76,-0.47,0.47,62.32,-47.06,-96.07
1777398911097,1548872,-0.84,-0.18,0.51,57.25,-21.30,-82.70
1777398911097,1548882,-0.96,-0.23,0.56,14.10,-9.46,-52.37
1777398911097,1548892,-1.04,-0.30,0.45,-9.83,-15.69,-20.51
1777398911097,1548902,-0.83,-0.53,0.03,-8.30,-15.69,-4.27
1777398911097,1548912,-0.82,-0.45,0.27,1.95,13.79,-5.49
1777398911097,1548922,-0.86,-0.41,0.32,5.19,28.99,-7.57
1777398911097,1548932,-0.91,-0.31,0.32,-0.31,33.39,-7.39
1777398911098,1548942,-0.85,-0.36,0.35,-9.77,36.99,1.65
1777398911098,1548952,-0.84,-0.40,0.35,-22.46,38.02,7.69
1777398911098,1548962,-0.89,-0.35,0.29,-30.88,40.28,11.90
1777398911098,1548972,-0.96,-0.42,0.27,-38.64,45.47,22.16
1777398911098,1548982,-1.04,-0.46,0.20,-44.25,45.65,29.60
1777398911098,1548992,-1.04,-0.44,0.18,-43.15,44.62,34.42
1777398911098,1549002,-1.01,-0.32,0.27,-44.49,42.36,39.43
1777398911098,1549012,-0.94,-0.28,0.29,-59.69,37.78,49.26
1777398911098,1549022,-0.89,-0.33,0.22,-70.92,33.75,57.50
1777398911098,1549032,-0.89,-0.36,0.21,-60.91,35.83,55.73
1777398911099,1549042,-0.95,-0.35,0.25,-47.30,37.17,49.44
1777398911099,1549052,-0.90,-0.33,0.21,-46.08,31.13,42.85
1777398911099,1549062,-0.84,-0.20,0.16,-57.80,28.20,39.43
1777398911099,1549072,-0.82,-0.19,0.21,-81.24,34.85,46.51
1777398911099,1549082,-0.91,-0.27,0.21,-112.18,41.75,56.88
1777398911099,1549092,-0.99,-0.37,0.16,-134.46,51.21,69.58
1777398911099,1549102,-1.06,-0.49,0.15,-134.64,60.24,79.47
1777398911099,1549112,-1.08,-0.50,0.12,-117.37,60.91,76.17
1777398911099,1549122,-1.06,-0.37,0.10,-92.35,58.23,65.31
1777398911099,1549132,-1.03,-0.20,0.02,-76.66,54.14,57.62
1777398911100,1549142,-0.95,-0.05,-0.05,-88.38,51.64,69.58
1777398911100,1549162,-0.77,0.17,-0.16,-296.26,93.26,134.52
1777398911100,1549182,-1.01,0.01,-0.16,-438.90,154.30,249.57
1777398911100,1549202,-1.27,-0.04,-0.14,-398.86,198.49,338.93
1777398911100,1549222,-1.51,-0.27,0.14,-250.37,201.72,355.90
1777398911100,1549232,-1.51,-0.44,0.20,-127.32,176.70,326.05
1777398911100,1549242,-1.36,-0.60,0.25,16.48,130.43,265.62
1777398911100,1549252,-1.06,-0.83,0.27,169.07,65.00,154.36
1777398911100,1549262,-0.83,-0.48,0.02,295.90,-23.19,-12.39
1777398911101,1549272,-0.87,-0.02,-0.34,384.34,-118.84,-182.07
1777398911101,1549282,-1.05,0.22,-0.55,455.08,-188.35,-311.83
1777398911101,1549292,-1.14,0.14,-0.64,535.95,-226.68,-389.83
1777398911101,1549302,-1.31,-0.07,-0.64,618.53,-250.37,-440.37
1777398911101,1549312,-1.18,-0.11,-1.00,694.95,-275.88,-469.97
1777398911101,1549322,-1.15,-0.08,-0.98,718.87,-270.75,-493.96
1777398911101,1549332,-1.38,0.56,-0.27,702.39,-243.90,-498.17
1777398911101,1549342,-1.30,0.48,-0.22,648.25,-261.78,-422.55
1777398911101,1549352,-1.05,0.69,-0.53,507.87,-275.94,-322.81
1777398911102,1549362,-0.58,1.15,-0.90,300.42,-238.16,-190.25
1777398911102,1549372,-0.27,1.59,-0.81,21.42,-127.14,-30.52
1777398911102,1549382,-0.25,1.21,-0.57,-302.19,9.70,140.14
1777398911102,1549392,-0.59,0.06,-0.28,-613.65,116.27,276.98
1777398911102,1549402,-0.78,-0.66,-0.22,-838.99,166.87,338.68
1777398911112,1549412,-0.84,-0.89,-0.51,-939.58,172.91,354.37
1777398911122,1549422,-1.14,-0.72,-0.86,-917.24,187.19,368.65
1777398911132,1549432,-1.51,-0.94,-1.09,-805.11,251.89,418.52
1777398911142,1549442,-1.73,-1.53,-0.72,-672.30,322.63,453.00
1777398911152,1549452,-1.89,-1.80,-0.45,-517.82,341.74,420.10
1777398911162,1549462,-1.78,-1.68,-0.14,-275.76,308.78,325.13
1777398911172,1549472,-1.40,-1.49,0.06,47.73,217.96,162.35
1777398911182,1549482,-1.21,-0.63,0.18,356.51,70.98,-242.07
1777398911202,1549502,-1.27,0.10,-0.85,681.58,-315.98,-385.56
1777398911222,1549522,-1.01,1.53,-0.77,617.00,-275.09,-355.16
1777398911242,1549542,-0.44,1.94,-0.70,58.35,-165.04,-101.44
1777398911262,1549562,-0.88,0.33,-0.73,-650.88,27.47,221.98
1777398911272,1549572,-1.72,-0.78,-0.82,-767.70,85.39,352.11
1777398911282,1549582,-1.99,-1.98,-0.81,-685.67,105.71,401.67
1777398911292,1549592,-1.53,-2.54,-0.86,-440.73,118.23,359.74
1777398911302,1549602,-1.06,-2.48,-0.72,-147.16,144.90,245.30
1777398911312,1549612,-1.04,-1.39,-0.40,129.09,168.09,79.71
1777398911322,1549622,-1.30,-0.57,-0.07,392.21,142.21,-65.92
1777398911332,1549632,-1.28,-0.26,-0.12,593.75,49.44,-149.84
1777398911342,1549642,-1.06,-0.03,-0.15,685.12,-67.75,-189.15
1777398911352,1549652,-0.85,0.58,-0.62,716.49,-178.41,-217.35
1777398911366,1549662,-0.88,1.93,-0.55,666.87,-236.63,-257.51
1777398911372,1549672,-0.71,2.99,-0.96,412.41,-254.33,-239.93
1777398911382,1549682,-0.30,2.25,-1.38,-19.84,-200.93,-123.29
1777398911392,1549692,-0.30,1.13,-1.03,-476.62,-102.84,10.19
1777398911402,1549702,-0.81,-0.06,-1.05,-777.83,-21.12,140.20
1777398911412,1549712,-1.42,-1.32,-1.03,-868.10,38.76,252.14
1777398911423,1549722,-1.93,-2.61,-0.93,-759.03,85.08,304.69
1777398911432,1549732,-1.92,-3.73,-0.77,-484.07,103.21,284.36
1777398911442,1549742,-1.27,-3.26,-0.57,-91.37,98.82,160.03
1777398911452,1549752,-1.00,-1.90,-0.59,276.12,101.56,-7.81
1777398911462,1549762,-1.16,-0.84,-0.26,549.80,94.67,-128.66
1777398911472,1549772,-1.05,-0.41,-0.60,728.33,32.47,-176.64
1777398911482,1549782,-0.96,0.09,-0.55,813.05,-18.98,-190.92
1777398911492,1549792,-1.03,1.05,-0.40,797.42,-76.66,-180.85
1777398911502,1549802,-1.04,2.32,-0.89,639.95,-175.35,-166.75
1777398911512,1549812,-0.93,2.71,-1.29,310.12,-219.30,-120.12
1777398911522,1549822,-0.51,1.62,-1.38,-85.39,-187.01,-30.27
1777398911532,1549832,-0.35,0.09,-0.78,-414.73,-29.97,69.15
1777398911552,1549852,-1.31,-2.21,-0.47,-353.15,80.26,116.21
1777398911572,1549872,-1.03,-2.11,0.10,267.88,30.40,-3.91
1777398911592,1549892,-0.88,-0.62,-0.43,607.30,-105.29,-65.37
1777398911612,1549912,-0.82,2.01,-0.22,620.91,-157.59,-63.66
1777398911622,1549922,-0.60,3.19,-1.05,363.10,-171.51,-48.34
1777398911632,1549932,-0.26,2.77,-1.56,-82.89,-127.81,-8.18
1777398911642,1549942,-0.23,0.85,-1.42,-541.14,-44.37,36.13
1777398911652,1549952,-0.61,-0.82,-0.90,-853.64,57.13,88.62
1777398911662,1549962,-0.95,-1.63,-0.61,-959.41,120.42,129.21
1777398911672,1549972,-1.32,-2.27,-0.58,-853.33,158.57,160.28
1777398911682,1549982,-1.73,-2.75,-0.53,-644.29,202.88,180.18
1777398911692,1549992,-1.76,-2.73,-0.18,-370.06,219.91,180.97
1777398911702,1550002,-1.39,-2.23,0.55,-41.32,190.06,136.96
1777398911712,1550012,-1.30,-1.56,1.05,245.85,89.54,59.51
1777398911722,1550022,-1.01,-1.17,-0.28,480.47,-75.26,-5.19
1777398911732,1550032,-0.80,-0.70,-0.70,669.43,-137.08,-60.00
1777398911742,1550042,-0.73,0.17,-0.85,764.04,-141.17,-94.97
1777398911752,1550052,-0.79,1.90,-1.02,728.88,-157.59,-131.96
1777398911762,1550062,-0.63,3.38,-1.35,476.44,-191.10,-156.01
1777398911772,1550072,-0.35,2.89,-1.91,14.40,-190.55,-121.70
1777398911782,1550082,-0.23,0.83,-1.62,-474.85,-109.56,-42.30
1777398911792,1550092,-0.65,-1.07,-0.81,-787.05,10.93,37.72
1777398911802,1550102,-1.05,-1.86,-0.61,-867.19,84.72,96.74
1777398911812,1550112,-1.61,-2.98,-0.53,-722.17,121.70,142.52
1777398911822,1550122,-1.75,-3.46,-0.26,-439.76,157.78,149.29
1777398911832,1550132,-1.36,-3.07,-0.18,-84.41,154.66,118.65
1777398911842,1550142,-1.24,-1.91,0.63,247.07,130.74,55.60
1777398911852,1550152,-1.18,-1.43,0.39,511.05,32.10,8.36
1777398911862,1550162,-0.89,-1.11,-0.95,711.73,-97.41,-29.48
1777398911872,1550172,-0.80,-0.53,-1.21,837.28,-120.54,-76.48
1777398911892,1550192,-1.07,1.80,-1.26,515.08,-236.21,-99.00
1777398911912,1550212,-0.53,1.09,-1.48,-382.26,-172.49,-1.95
1777398911932,1550232,-0.68,-1.31,-0.53,-824.34,66.22,52.19
1777398911952,1550252,-1.65,-2.87,-0.25,-595.52,170.59,112.12
1777398911962,1550262,-1.65,-3.20,-0.22,-341.49,168.40,123.60
1777398911972,1550272,-1.39,-2.75,0.57,-15.81,142.03,101.01
1777398911982,1550282,-1.19,-1.82,0.70,296.14,43.33,39.18
1777398911992,1550292,-0.89,-1.02,-0.31,528.26,-90.94,-17.03
1777398912002,1550302,-0.69,-0.52,-0.65,660.95,-130.98,-49.44
1777398912012,1550312,-0.70,0.21,-0.62,692.63,-117.25,-62.99
1777398912022,1550322,-0.80,1.46,-0.56,625.12,-120.18,-72.75
1777398912032,1550332,-0.72,2.55,-0.93,405.21,-149.90,-83.31
1777398912042,1550342,-0.51,2.59,-1.40,32.10,-155.76,-67.63
1777398912052,1550352,-0.20,1.26,-1.35,-375.61,-104.98,-30.09
1777398912062,1550362,-0.26,-0.40,-1.03,-673.16,-17.46,4.52
1777398912072,1550372,-0.78,-1.43,-0.65,-804.26,59.14,25.88
1777398912082,1550382,-1.14,-2.12,-0.69,-759.40,109.31,63.11
1777398912092,1550392,-1.63,-2.92,-0.42,-596.31,160.52,109.31
1777398912102,1550402,-1.70,-3.20,0.18,-349.43,181.34,129.52
1777398912112,1550412,-1.36,-2.73,0.35,-41.50,130.31,104.31
1777398912122,1550422,-1.16,-1.99,0.39,244.81,48.22,52.61
1777398912132,1550432,-0.98,-1.28,-0.22,478.39,-42.48,8.85
1777398912142,1550442,-0.81,-0.81,-0.67,644.35,-92.77,-22.22
1777398912152,1550452,-0.83,-0.16,-0.77,721.80,-102.36,-38.70
1777398912162,1550462,-0.85,0.67,-0.69,702.88,-103.45,-35.52
1777398912172,1550472,-0.78,1.54,-0.73,582.15,-124.63,-36.25
1777398912182,1550482,-0.76,2.40,-0.96,338.32,-162.05,-57.19
1777398912192,1550492,-0.53,2.54,-1.36,-13.79,-169.43,-54.38
1777398912202,1550502,-0.20,1.40,-1.41,-397.34,-113.28,-19.59
1777398912212,1550512,-0.24,-0.20,-1.21,-694.64,-16.54,21.97
1777398912222,1550522,-0.72,-1.21,-0.83,-838.07,136.84,80.32
1777398912242,1550542,-1.65,-2.94,-0.53,-396.18,170.78,122.62
1777398912262,1550562,-1.20,-2.10,0.52,241.15,44.49,59.57
1777398912282,1550582,-0.82,-0.78,-0.82,688.42,-119.38,-28.20
1777398912302,1550602,-1.01,0.92,-1.20,743.65,-140.01,-49.44
1777398912312,1550612,-0.87,1.59,-1.28,568.73,-171.69,-39.18
1777398912322,1550622,-0.56,2.28,-1.12,288.21,-205.38,-44.37
1777398912332,1550632,-0.15,2.12,-1.04,-60.49,-205.20,-54.26
1777398912342,1550642,0.10,0.94,-0.92,-416.08,-143.01,-43.33
1777398912352,1550652,-0.19,-0.31,-0.82,-679.50,-29.30,-15.81
1777398912362,1550662,-0.78,-1.36,-0.62,-783.20,81.97,20.75
1777398912372,1550672,-1.45,-2.15,-0.43,-739.99,138.12,60.30
1777398912382,1550682,-1.98,-3.07,-0.22,-597.35,141.48,106.99
1777398912392,1550692,-1.96,-3.66,0.33,-341.43,104.13,145.14
1777398912402,1550702,-1.43,-3.32,0.72,22.71,6.53,121.46
1777398912412,1550712,-1.09,-2.22,0.10,368.65,-113.53,51.33
1777398912422,1550722,-0.97,-1.34,-0.56,622.50,-181.40,-18.98
1777398912432,1550732,-0.97,-0.65,-0.92,769.96,-202.88,-73.24
1777398912442,1550742,-1.08,0.40,-1.10,818.91,-211.43,-104.25
1777398912452,1550752,-0.75,1.66,-1.22,744.75,-227.84,-109.99
1777398912462,1550762,-0.38,2.78,-1.07,510.31,-242.43,-118.35
1777398912472,1550772,-0.14,2.59,-1.07,119.08,-217.83,-105.90
1777398912482,1550782,0.05,1.26,-1.10,-304.50,-137.76,-52.61
1777398912492,1550792,-0.48,-0.30,-0.69,-620.48,-17.88,13.85
1777398912502,1550802,-1.06,-1.41,-0.33,-768.68,86.06,83.80
1777398912512,1550812,-1.44,-1.97,-0.13,-769.35,138.43,156.19
1777398912522,1550822,-1.50,-2.06,-0.03,-679.63,156.68,220.76
1777398912532,1550832,-1.33,-1.90,-0.01,-553.10,165.83,268.43
1777398912542,1550842,-1.33,-2.20,0.24,-425.90,179.81,288.70
1777398912552,1550852,-1.31,-2.55,0.62,-248.90,165.10,260.80
1777398912562,1550862,-1.25,-2.53,0.41,42.72,86.67,34.67
1777398912582,1550882,-1.36,-1.54,-0.82,883.54,-203.86,-177.98
1777398912603,1550902,-1.20,1.09,-1.79,933.47,-263.18,-264.95
1777398912622,1550922,-0.50,2.66,-0.59,484.74,-279.36,-220.46
1777398912642,1550942,0.16,1.08,-0.80,-339.11,-121.95,-27.95
1777398912652,1550952,-0.36,-0.01,-0.74,-670.17,46.02,77.88
1777398912662,1550962,-0.88,-0.78,-0.67,-865.66,171.26,162.84
1777398912672,1550972,-1.11,-1.28,-0.79,-942.20,238.34,230.59
1777398912682,1550982,-1.11,-1.54,-0.95,-939.27,277.40,279.36
1777398912692,1550992,-1.16,-1.43,-0.87,-883.67,314.82,300.60
1777398912702,1551002,-1.34,-1.30,-0.78,-787.84,334.66,293.09
1777398912712,1551012,-1.62,-1.59,-0.62,-672.49,322.57,261.66
1777398912722,1551022,-1.90,-2.08,-0.28,-513.85,252.87,218.57
1777398912732,1551032,-1.58,-2.33,-0.23,-266.48,115.23,150.63
1777398912742,1551042,-1.31,-1.97,-0.34,40.41,-25.76,55.48
1777398912752,1551052,-1.21,-1.35,-0.51,318.18,-131.77,-39.73
1777398912762,1551062,-1.08,-0.97,-0.91,522.83,-208.19,-117.80
1777398912772,1551072,-1.04,-0.67,-1.11,669.13,-244.57,-178.22
1777398912782,1551082,-1.14,-0.45,-1.31,768.92,-264.95,-225.04
1777398912792,1551092,-1.24,-0.43,-1.34,823.00,-271.91,-251.22
1777398912802,1551102,-1.37,-0.45,-1.11,835.27,-266.66,-250.98
1777398912812,1551112,-1.39,-0.43,-0.95,819.64,-280.94,-237.85
1777398912822,1551122,-1.40,0.11,-1.03,770.08,-317.20,-214.54
1777398912832,1551132,-1.31,0.67,-0.89,672.06,-335.14,-161.38
1777398912842,1551142,-1.13,0.97,-0.89,513.12,-329.35,-84.90
1777398912852,1551152,-0.73,1.04,-0.68,307.01,-312.81,-4.33
1777398912862,1551162,-0.29,1.15,-0.24,87.28,-301.33,57.68
1777398912872,1551172,-0.95,0.87,-0.16,-133.54,-271.12,140.08
1777398912882,1551182,-1.15,0.02,-0.37,-330.38,-209.78,279.79
1777398912892,1551192,-1.01,-0.89,0.10,-422.42,-169.25,379.64
1777398912902,1551202,-1.01,-2.00,0.79,-375.85,-162.96,448.79
1777398912912,1551212,-0.93,-2.16,0.98,-296.75,-174.44,405.82
1777398912932,1551232,0.03,-1.68,-0.06,138.43,-159.79,150.33
1777398912952,1551252,-0.81,0.19,0.76,146.55,-178.59,-0.98
1777398912972,1551272,-0.24,-0.18,0.32,196.66,-346.86,-16.42
1777398912982,1551282,0.01,0.20,0.30,234.86,-401.79,-66.47
1777398912992,1551292,0.24,0.78,0.40,196.96,-422.18,-111.63
1777398913002,1551302,0.27,0.97,0.72,100.52,-413.64,-115.72
1777398913012,1551312,0.15,0.37,0.91,-9.16,-377.62,-82.21
1777398913022,1551322,0.41,-0.53,1.13,-57.01,-329.28,-56.09
1777398913032,1551332,0.53,-0.74,1.31,-38.27,-284.00,-72.39
1777398913042,1551342,0.47,-0.60,1.28,-8.06,-215.21,-94.79
1777398913052,1551352,0.49,-0.47,1.33,32.35,-106.93,-87.40
1777398913062,1551362,0.59,-0.15,1.41,58.17,10.62,-60.73
1777398913072,1551372,0.48,0.04,1.26,40.65,132.08,-8.36
1777398913082,1551382,0.21,-0.00,1.06,-12.45,252.75,72.08
1777398913092,1551392,0.01,-0.14,0.98,-87.89,341.86,166.14
1777398913102,1551402,-0.35,-0.25,1.17,-179.93,405.46,258.79
1777398913112,1551412,-0.44,-0.50,0.76,-271.67,441.47,348.14
1777398913122,1551422,-1.08,-0.66,0.67,-324.52,488.46,442.81
1777398913132,1551432,-1.40,-0.97,0.67,-347.05,538.27,546.63
1777398913142,1551442,-1.48,-1.08,0.82,-334.23,563.05,629.76
1777398913152,1551452,-1.29,-0.84,0.88,-300.84,549.44,675.17
1777398913162,1551462,-0.98,-0.52,0.69,-252.75,511.90,684.39
1777398913172,1551472,-0.68,-0.13,0.64,-204.83,483.34,664.00
1777398913182,1551482,-0.49,0.23,0.49,-180.60,463.13,619.26
1777398913192,1551492,-0.40,0.34,0.50,-179.69,454.90,558.59
1777398913202,1551502,-0.50,0.41,0.68,-189.51,415.41,483.76
1777398913212,1551512,-0.50,0.32,0.31,-179.93,332.40,398.99
1777398913222,1551522,-0.45,0.34,0.26,-125.06,278.26,298.95
1777398913232,1551532,-0.49,0.50,0.27,-21.67,221.01,169.86
1777398913242,1551542,-0.56,0.64,0.18,122.80,121.95,17.15
1777398913252,1551552,-0.56,0.71,-0.11,253.23,6.65,-259.70
1777398913272,1551572,-0.95,0.44,-0.32,562.68,-261.78,-428.53
1777398913292,1551592,-1.48,1.05,-0.39,714.54,-373.23,-479.68
1777398913312,1551612,-0.82,1.04,-0.63,669.49,-451.42,-440.92
1777398913332,1551632,0.19,0.92,-0.18,310.18,-287.96,-374.51
1777398913343,1551642,-0.31,0.02,0.23,-13.12,-91.98,-282.65
1777398913352,1551652,-1.19,-0.66,0.01,-326.05,138.12,-118.47
1777398913362,1551662,-1.80,-1.15,-0.11,-515.44,320.80,102.42
1777398913372,1551672,-1.52,-1.47,-0.04,-620.61,414.25,285.34
1777398913382,1551682,-1.07,-1.42,0.04,-666.26,425.23,367.61
1777398913392,1551692,-0.93,-1.08,0.07,-640.99,412.29,376.10
1777398913402,1551702,-0.98,-0.62,0.43,-570.62,413.88,365.72
1777398913412,1551712,-0.82,-0.12,0.77,-494.51,409.24,360.78
1777398913422,1551722,-0.59,0.18,0.66,-422.24,381.71,345.89
1777398913432,1551732,-0.51,0.20,0.42,-345.34,355.41,307.68
1777398913442,1551742,-0.61,0.13,0.20,-249.02,332.52,237.79
1777398913452,1551752,-0.84,0.10,0.03,-95.09,278.26,134.89
1777398913462,1551762,-1.01,0.00,-0.01,124.15,155.27,12.70
1777398913472,1551772,-1.05,0.01,-0.68,371.03,-40.34,-112.06
1777398913482,1551782,-1.18,-0.03,-1.09,565.92,-225.46,-217.65
1777398913492,1551792,-1.14,-0.08,-1.23,701.05,-357.18,-285.77
1777398913502,1551802,-1.09,-0.12,-1.17,806.15,-442.99,-330.20
1777398913512,1551812,-1.17,0.05,-0.97,884.64,-497.99,-359.50
1777398913522,1551822,-1.09,0.43,-0.88,901.49,-521.30,-368.47
1777398913532,1551832,-0.68,1.15,-0.63,831.42,-484.92,-346.86
1777398913542,1551842,-0.26,1.79,-0.58,656.68,-393.62,-290.71
1777398913552,1551852,-0.07,1.57,-1.00,286.62,-224.85,-197.27
1777398913562,1551862,-0.80,0.56,-1.39,-254.82,34.67,-65.37
1777398913572,1551872,-1.62,-0.49,-1.73,-758.54,283.26,92.41
1777398913582,1551882,-1.98,-1.49,-1.81,-1072.75,409.55,223.27
1777398913592,1551892,-1.76,-2.22,-1.35,-1152.22,418.52,295.96
1777398913602,1551902,-1.38,-2.28,-0.49,-1019.90,279.48,276.61
1777398913622,1551922,-1.21,-1.14,0.55,-307.50,165.89,184.33
1777398913642,1551942,-0.56,-0.00,-0.33,362.73,-97.35,-3.97
1777398913662,1551962,-1.08,-0.20,-0.74,722.11,-231.26,-248.60
1777398913672,1551972,-1.17,-0.15,-0.85,816.83,-318.48,-309.45
1777398913682,1551982,-1.17,0.26,-1.02,859.99,-370.42,-332.95
1777398913692,1551992,-0.76,0.89,-0.99,783.26,-352.84,-325.50
1777398913702,1552002,-0.45,1.25,-0.85,576.11,-285.71,-289.00
1777398913712,1552012,-0.50,1.08,-0.91,235.66,-182.56,-221.62
1777398913722,1552022,-0.81,0.37,-1.38,-197.75,-23.07,-103.70
1777398913732,1552032,-1.32,-0.44,-1.50,-598.51,162.29,33.51
1777398913742,1552042,-1.51,-1.20,-1.12,-830.44,269.59,136.23
1777398913752,1552052,-1.51,-2.00,-0.66,-839.78,261.96,177.92
1777398913762,1552062,-1.48,-2.55,0.13,-663.02,203.67,174.68
1777398913772,1552072,-1.16,-2.48,0.75,-343.87,113.10,151.37
1777398913782,1552082,-0.80,-1.86,0.70,45.84,-9.83,104.43
1777398913792,1552092,-0.74,-0.91,0.13,381.23,-116.15,34.42
1777398913802,1552102,-0.71,-0.30,-0.31,590.03,-165.65,-29.60
1777398913812,1552112,-0.80,-0.19,-0.45,669.19,-181.58,-93.38
1777398913822,1552122,-1.10,-0.06,-0.58,680.60,-202.64,-150.33
1777398913832,1552132,-1.24,0.35,-0.90,654.72,-233.58,-178.10
1777398913842,1552142,-0.71,0.65,-0.98,557.25,-237.67,-173.89
1777398913852,1552152,-0.43,0.85,-0.94,381.96,-211.30,-159.73
1777398913862,1552162,-0.49,0.77,-0.94,116.03,-147.34,-133.12
1777398913872,1552172,-0.69,0.30,-0.93,-204.90,-33.87,-73.55
1777398913882,1552182,-1.01,-0.42,-0.66,-481.69,94.18,1.16
1777398913892,1552192,-1.19,-1.04,-0.40,-636.05,179.14,60.85
1777398913902,1552202,-1.22,-1.63,-0.20,-638.61,200.26,93.63
1777398913912,1552212,-1.22,-1.97,0.21,-512.15,184.39,99.98
1777398913922,1552222,-1.03,-1.85,0.52,-286.56,139.77,87.16
1777398913932,1552232,-0.91,-1.57,0.62,-23.25,68.85,56.46
1777398913942,1552242,-0.97,-1.24,0.37,225.46,-8.54,-23.86
1777398913962,1552262,-0.91,-1.06,-0.22,722.90,-150.94,-93.14
1777398913982,1552282,-1.05,0.26,-1.09,756.10,-213.44,-137.21
1777398914002,1552302,-0.54,1.26,-1.14,333.07,-189.33,-116.88
1777398914023,1552322,-0.69,0.35,-0.89,-412.90,-9.40,-5.68
1777398914032,1552332,-0.91,-0.59,-0.61,-705.57,91.86,52.43
1777398914042,1552342,-0.98,-1.19,-0.37,-830.44,144.29,86.67
1777398914053,1552352,-0.92,-1.41,-0.34,-814.94,153.44,103.52
1777398914062,1552362,-0.92,-1.58,-0.29,-731.14,154.79,108.46
1777398914072,1552372,-1.14,-1.96,0.13,-618.35,160.22,103.64
1777398914082,1552382,-1.16,-2.24,0.67,-445.68,153.87,94.67
1777398914092,1552392,-1.00,-2.19,0.97,-168.82,107.60,74.34
1777398914102,1552402,-0.87,-1.80,0.74,159.61,29.05,33.45
1777398914112,1552412,-0.80,-1.35,0.09,447.45,-45.90,-17.82
1777398914122,1552422,-0.75,-0.99,-0.32,632.87,-88.01,-65.49
1777398914132,1552432,-0.87,-0.52,-0.70,719.42,-109.62,-105.22
1777398914142,1552442,-0.99,0.15,-1.00,707.40,-124.21,-124.51
1777398914152,1552452,-0.90,0.86,-1.21,583.50,-146.06,-116.94
1777398914162,1552462,-0.70,1.22,-1.51,324.52,-163.39,-85.94
1777398914172,1552472,-0.70,1.00,-1.55,-68.18,-122.44,-33.87
1777398914182,1552482,-0.69,-0.02,-1.31,-472.17,-25.45,29.05
1777398914192,1552492,-0.90,-0.98,-0.89,-732.79,73.36,73.43
1777398914202,1552502,-1.07,-1.56,-0.43,-801.39,132.32,94.18
1777398914212,1552512,-1.10,-1.86,-0.23,-718.08,144.41,103.58
1777398914222,1552522,-1.18,-1.98,0.08,-570.43,144.84,106.57
1777398914232,1552532,-1.20,-2.06,0.55,-385.25,135.50,106.81
1777398914242,1552542,-1.03,-2.02,0.87,-133.42,88.44,97.41
1777398914252,1552552,-0.87,-1.76,0.64,174.93,3.72,64.76
1777398914262,1552562,-0.83,-1.38,-0.01,473.94,-78.19,16.36
1777398914272,1552572,-0.79,-1.22,-0.34,695.98,-124.21,-30.03
1777398914282,1552582,-0.88,-1.12,-0.68,830.69,-154.79,-73.79
1777398914292,1552592,-0.98,-0.91,-0.93,886.17,-213.56,-114.44
1777398914312,1552612,-1.00,0.81,-1.46,456.79,-213.13,-61.95
1777398914332,1552632,-0.38,0.40,-1.16,-403.32,-30.82,35.83
1777398914352,1552652,-1.02,-1.22,-0.29,-863.59,164.12,69.82
1777398914362,1552662,-1.05,-1.48,-0.21,-846.74,189.64,84.66
1777398914372,1552672,-0.97,-1.36,-0.26,-751.65,194.95,98.94
1777398914382,1552682,-0.90,-1.14,-0.23,-648.80,202.94,105.90
1777398914392,1552692,-0.91,-1.16,-0.11,-561.77,205.02,100.04
1777398914402,1552702,-1.17,-1.54,0.24,-470.58,200.38,87.34
1777398914412,1552712,-1.20,-1.93,0.64,-301.03,172.73,80.02
1777398914422,1552722,-0.96,-2.14,0.67,-19.23,100.10,63.42
1777398914432,1552732,-0.75,-1.91,0.18,309.20,-1.95,20.63
1777398914442,1552742,-0.74,-1.60,-0.50,588.26,-89.48,-37.48
1777398914452,1552752,-0.77,-1.41,-0.88,768.01,-137.45,-88.13
1777398914462,1552762,-0.82,-1.22,-1.15,864.62,-160.89,-119.26
1777398914472,1552772,-1.02,-0.74,-1.09,893.98,-164.37,-124.27
1777398914482,1552782,-0.90,0.21,-0.93,851.56,-172.06,-106.02
1777398914492,1552792,-0.72,0.97,-1.32,679.08,-183.72,-83.44
1777398914502,1552802,-0.69,1.39,-1.50,340.45,-130.31,-50.35
1777398914512,1552812,-0.75,1.13,-1.54,-85.51,-40.34,-3.11
1777398914522,1552822,-0.62,0.30,-1.40,-476.62,45.59,34.24
1777398914532,1552832,-0.68,-0.55,-1.07,-735.17,106.38,41.81
1777398914542,1552842,-0.80,-1.14,-0.71,-839.23,139.04,34.24
1777398914552,1552852,-0.89,-1.50,-0.49,-808.11,143.31,29.05
1777398914562,1552862,-1.07,-2.00,-0.28,-696.96,137.21,31.43
1777398914572,1552872,-1.35,-2.39,0.38,-540.47,138.24,45.41
1777398914582,1552882,-1.24,-2.62,0.91,-286.80,106.75,67.02
1777398914592,1552892,-0.97,-2.50,0.90,64.64,25.94,70.01
1777398914602,1552902,-0.65,-2.04,0.30,431.46,-65.12,44.86
1777398914612,1552912,-0.60,-1.60,-0.38,725.04,-122.01,5.19
1777398914622,1552922,-0.56,-1.33,-0.73,892.88,-134.16,-30.76
1777398914632,1552932,-0.72,-1.06,-0.96,951.66,-133.00,-62.56
1777398914652,1552952,-1.21,0.08,-1.45,558.84,-142.70,3.60
1777398914672,1552972,-0.63,1.17,-1.28,-130.62,-78.92,48.22
1777398914692,1552992,-0.54,-0.23,-0.61,-749.57,45.59,17.46
1777398914712,1553012,-0.77,-1.31,-0.55,-883.54,118.90,21.00
1777398914722,1553022,-0.84,-1.48,-0.51,-814.76,137.02,34.97
1777398914733,1553032,-1.00,-1.88,-0.29,-716.19,151.37,45.78
1777398914742,1553042,-1.26,-2.35,0.28,-582.52,156.68,52.06
1777398914752,1553052,-1.26,-2.57,0.74,-348.08,130.25,61.71
1777398914762,1553062,-1.01,-2.47,0.86,-17.70,61.89,62.68
1777398914772,1553072,-0.80,-2.02,0.40,328.98,-27.10,40.95
1777398914782,1553082,-0.68,-1.57,-0.31,603.58,-93.63,10.50
1777398914792,1553092,-0.68,-1.17,-0.74,767.52,-121.22,-17.82
1777398914802,1553102,-0.84,-0.83,-1.10,830.08,-136.29,-39.06
1777398914812,1553112,-1.01,-0.55,-1.24,801.45,-155.33,-46.94
1777398914822,1553122,-1.07,-0.10,-1.34,697.88,-182.19,-35.40
1777398914832,1553132,-0.95,0.44,-1.42,534.85,-208.50,-7.26
1777398914842,1553142,-0.70,0.91,-1.36,300.29,-210.51,23.99
1777398914852,1553152,-0.47,0.99,-1.19,-4.27,-170.90,52.06
1777398914862,1553162,-0.38,0.59,-0.89,-332.40,-97.17,69.21
1777398914872,1553172,-0.50,-0.08,-0.72,-611.57,-9.83,78.61
1777398914882,1553182,-0.70,-0.78,-0.59,-794.80,69.95,85.69
1777398914892,1553192,-0.90,-1.28,-0.47,-865.78,124.08,94.18
1777398914902,1553202,-0.99,-1.49,-0.41,-836.49,151.61,105.59
1777398914912,1553212,-0.98,-1.50,-0.36,-744.87,164.18,119.45
1777398914923,1553222,-0.94,-1.24,-0.24,-647.77,171.26,125.67
1777398914932,1553232,-0.96,-1.10,-0.16,-571.23,172.85,127.93
1777398914942,1553242,-1.02,-1.24,-0.01,-499.33,169.01,121.77
1777398914952,1553252,-1.11,-1.49,0.29,-392.52,160.77,105.35
1777398914962,1553262,-1.02,-1.75,0.50,-200.50,128.11,80.75
1777398914972,1553272,-0.88,-1.79,0.52,76.97,58.59,39.12
1777398914992,1553292,-0.91,-1.54,-0.53,828.61,-186.04,-131.71
1777398915012,1553312,-0.96,-1.43,-1.11,1007.02,-213.87,-174.13
1777398915033,1553332,-0.97,-0.87,-0.78,953.80,-165.04,-141.36
1777398915052,1553352,-0.79,0.05,-1.05,666.75,-63.23,-45.96
1777398915062,1553362,-0.84,0.79,-1.15,426.57,-2.44,-3.72
1777398915073,1553372,-0.96,1.20,-1.11,101.68,47.91,36.56
1777398915082,1553382,-0.81,1.08,-1.23,-261.35,64.64,69.15
1777398915092,1553392,-0.62,0.45,-1.11,-591.67,67.87,72.88
1777398915102,1553402,-0.59,-0.19,-0.92,-826.72,78.98,57.13
1777398915112,1553412,-0.70,-0.70,-0.94,-954.53,94.79,45.10
1777398915122,1553422,-0.91,-1.12,-1.05,-998.47,112.73,50.35
1777398915132,1553432,-1.03,-1.52,-1.04,-975.95,135.86,74.58
1777398915142,1553442,-1.04,-1.68,-0.96,-898.13,151.55,99.43
1777398915152,1553452,-1.02,-1.63,-0.75,-795.23,158.57,117.31
1777398915162,1553462,-1.17,-1.71,-0.47,-690.55,159.79,125.92
1777398915172,1553472,-1.35,-2.00,0.16,-568.12,161.50,127.81
1777398915182,1553482,-1.17,-2.24,0.66,-353.27,137.27,128.05
1777398915192,1553492,-0.68,-1.96,0.52,-17.27,60.06,105.59
1777398915202,1553502,-0.52,-1.53,0.23,355.53,-43.03,46.75
1777398915212,1553512,-0.63,-1.06,-0.39,658.69,-137.88,-28.38
1777398915223,1553522,-0.78,-0.86,-0.90,840.27,-198.49,-88.56
1777398915232,1553532,-0.84,-0.96,-1.06,918.03,-216.98,-123.29
1777398915242,1553542,-0.80,-1.09,-1.04,932.92,-208.07,-138.85
1777398915252,1553552,-0.91,-1.03,-0.93,912.66,-189.03,-142.40
1777398915262,1553562,-1.06,-0.85,-0.87,857.79,-172.30,-123.11
1777398915274,1553572,-1.13,-0.48,-0.99,757.57,-158.20,-76.78
1777398915282,1553582,-0.89,-0.02,-1.24,610.41,-133.12,-14.65
1777398915292,1553592,-0.61,0.60,-1.35,403.08,-96.07,30.58
1777398915302,1553602,-0.67,1.05,-0.95,112.49,-45.65,53.34
1777398915312,1553612,-0.67,0.94,-0.91,-223.75,-16.97,69.89
1777398915322,1553622,-0.62,0.41,-0.90,-540.71,8.18,88.07
1777398915342,1553642,-0.86,-0.81,-0.69,-948.24,122.38,114.75
1777398915362,1553662,-1.05,-1.49,-0.77,-841.00,161.99,156.98
1777398915382,1553682,-1.04,-1.33,-0.29,-661.01,171.81,180.05
1777398915402,1553702,-1.06,-1.53,0.48,-395.32,178.16,146.18
1777398915412,1553712,-0.87,-1.52,0.64,-127.01,134.28,106.14
1777398915423,1553722,-0.72,-1.22,0.36,200.38,42.36,35.10
1777398915432,1553732,-0.73,-0.88,-0.21,493.53,-65.31,-51.09
1777398915442,1553742,-0.86,-0.81,-0.58,696.78,-157.04,-127.75
1777398915452,1553752,-0.92,-0.90,-0.86,806.58,-213.93,-176.57
1777398915462,1553762,-0.94,-1.08,-0.87,848.82,-224.91,-199.89
1777398915472,1553772,-0.95,-1.35,-0.74,860.41,-204.90,-201.05
1777398915482,1553782,-1.08,-1.54,-0.70,858.46,-183.23,-185.30
1777398915492,1553792,-1.16,-1.43,-0.81,843.69,-167.60,-148.19
1777398915502,1553802,-1.15,-1.14,-0.98,806.03,-147.77,-89.84
1777398915512,1553812,-1.03,-0.80,-1.15,720.40,-108.95,-24.17
1777398915522,1553822,-0.85,-0.23,-1.01,577.51,-54.26,29.42
1777398915532,1553832,-0.78,0.41,-0.84,400.70,-27.53,68.60
1777398915542,1553842,-0.71,0.98,-0.77,184.39,-36.25,93.69
1777398915552,1553852,-0.58,1.17,-0.71,-81.97,-47.67,109.25
1777398915562,1553862,-0.46,0.85,-0.60,-376.83,-41.63,113.10
1777398915572,1553872,-0.43,0.41,-0.78,-644.29,-8.06,106.45
1777398915582,1553882,-0.58,-0.13,-0.85,-842.96,44.62,102.42
1777398915592,1553892,-0.82,-0.69,-0.99,-965.76,96.37,107.30
1777398915602,1553902,-1.05,-1.23,-1.04,-1016.11,144.53,122.99
1777398915612,1553912,-1.12,-1.70,-0.94,-989.14,187.56,145.81
1777398915622,1553922,-1.16,-1.79,-0.66,-897.58,217.96,165.16
1777398915632,1553932,-1.18,-1.66,-0.37,-779.24,234.19,182.62
1777398915642,1553942,-1.10,-1.40,-0.09,-662.41,240.78,189.88
