host_time_ms,arduino_time_ms,ax,ay,az,gx,gy,gz
1777398962371,1595232,-1.01,-0.05,-0.30,279.24,405.09,-25.51
1777398962371,1595242,-1.34,-0.09,0.16,241.58,499.82,-37.17
1777398962372,1595252,-1.42,-0.17,0.38,178.16,515.62,-62.87
1777398962372,1595262,-1.42,-0.20,0.47,114.62,481.26,-92.90
1777398962372,1595272,-1.47,-0.15,0.80,48.40,417.42,-115.05
1777398962372,1595282,-1.39,0.01,1.04,-41.44,305.97,-120.12
1777398962373,1595292,-1.23,0.11,0.75,-152.47,141.60,-102.54
1777398962373,1595302,-1.30,-0.20,0.20,-237.55,-50.48,-60.30
1777398962373,1595312,-1.43,-0.57,-0.47,-252.87,-246.52,-15.26
1777398962374,1595322,-1.39,-0.70,-0.98,-195.92,-411.62,8.67
1777398962374,1595332,-1.21,-0.50,-1.20,-109.74,-510.19,4.15
1777398962374,1595342,-0.94,-0.30,-1.37,-46.51,-536.99,-13.43
1777398962375,1595352,-0.63,-0.29,-1.48,-10.74,-386.23,-35.16
1777398962375,1595372,-0.15,-0.40,-1.42,153.32,-24.48,-32.35
1777398962376,1595392,-0.83,-0.20,-0.23,207.52,324.95,-31.98
1777398962376,1595412,-1.14,-0.26,0.33,115.48,418.46,-54.87
1777398962376,1595432,-1.31,-0.20,0.69,2.32,344.54,-83.98
1777398962377,1595442,-1.24,-0.10,0.65,-72.08,254.15,-87.04
1777398962377,1595452,-1.13,-0.13,0.30,-146.91,138.06,-74.34
1777398962377,1595462,-1.07,-0.31,-0.23,-192.14,14.95,-46.69
1777398962377,1595472,-1.01,-0.57,-0.78,-183.84,-99.79,-13.49
1777398962378,1595482,-0.99,-0.80,-1.09,-116.15,-185.06,13.61
1777398962378,1595492,-0.92,-0.69,-1.06,-20.87,-233.52,19.71
1777398962378,1595502,-0.72,-0.42,-1.02,49.38,-251.40,8.61
1777398962378,1595512,-0.55,-0.35,-1.07,86.43,-232.60,-1.77
1777398962379,1595522,-0.50,-0.36,-0.95,107.42,-164.43,-5.49
1777398962379,1595532,-0.53,-0.31,-0.70,118.90,-71.47,-5.37
1777398962379,1595542,-0.63,-0.29,-0.40,114.75,15.38,-4.15
1777398962380,1595552,-0.74,-0.31,-0.12,91.80,78.19,-4.94
1777398962380,1595562,-0.80,-0.34,0.06,54.14,108.52,-8.85
1777398962380,1595572,-0.86,-0.41,0.19,13.73,107.79,-14.34
1777398962380,1595582,-0.87,-0.38,0.27,-22.09,82.76,-19.41
1777398962381,1595592,-0.84,-0.33,0.24,-57.07,39.98,-20.26
1777398962381,1595602,-0.76,-0.29,0.07,-92.83,-6.65,-14.77
1777398962381,1595612,-0.67,-0.27,-0.19,-121.64,-41.69,-2.44
1777398962381,1595622,-0.62,-0.32,-0.43,-131.10,-59.69,18.37
1777398962382,1595632,-0.66,-0.42,-0.57,-114.62,-65.55,42.36
1777398962382,1595642,-0.76,-0.48,-0.63,-76.48,-67.08,57.56
1777398962382,1595652,-0.85,-0.47,-0.61,-28.14,-70.07,54.93
1777398962382,1595662,-0.86,-0.36,-0.53,17.15,-76.48,37.96
1777398962383,1595672,-0.88,-0.26,-0.40,47.97,-85.45,15.93
1777398962383,1595682,-0.81,-0.17,-0.33,59.69,-96.80,-1.95
1777398962383,1595692,-0.76,-0.14,-0.30,59.63,-107.73,-10.99
1777398962383,1595712,-0.60,-0.19,-0.41,58.23,-103.76,1.83
1777398962383,1595732,-0.65,-0.36,-0.46,93.32,-73.30,11.90
1777398962384,1595752,-0.79,-0.31,-0.33,134.16,-49.80,7.26
1777398962384,1595772,-0.79,-0.48,-0.53,140.62,-35.83,-1.77
1777398962384,1595782,-0.91,-0.36,-0.20,128.23,-14.34,-18.49
1777398962384,1595792,-0.95,-0.38,-0.12,133.48,-7.20,-24.23
1777398962384,1595802,-0.95,-0.36,-0.05,135.19,-7.39,-25.82
1777398962385,1595812,-0.98,-0.33,-0.03,131.10,-9.34,-27.40
1777398962385,1595822,-1.00,-0.34,0.01,125.85,-13.67,-22.40
1777398962385,1595832,-1.12,-0.35,0.35,121.77,-21.48,-13.85
1777398962385,1595842,-1.08,-0.43,0.51,104.98,-45.59,-8.54
1777398962386,1595852,-1.10,-0.36,0.30,88.50,-78.86,-5.25
1777398962386,1595862,-1.15,-0.40,0.09,95.70,-101.93,7.51
1777398962386,1595872,-1.17,-0.53,-0.00,112.55,-114.44,19.17
1777398962386,1595882,-1.16,-0.52,0.01,118.84,-119.57,15.44
1777398962386,1595892,-1.19,-0.41,0.14,114.07,-122.99,3.54
1777398962387,1595902,-1.07,-0.47,0.15,105.77,-129.94,-5.80
1777398962387,1595912,-1.05,-0.41,0.21,96.68,-133.06,-12.88
1777398962387,1595922,-0.98,-0.37,0.24,93.44,-131.04,-12.82
1777398962387,1595932,-0.93,-0.39,0.27,92.41,-126.04,-5.74
1777398962387,1595942,-0.92,-0.46,0.31,90.45,-118.71,3.30
1777398962388,1595952,-0.97,-0.51,0.34,87.40,-113.83,8.00
1777398962388,1595962,-1.08,-0.55,0.45,91.31,-115.97,7.02
1777398962388,1595972,-1.09,-0.58,0.44,110.90,-131.77,-0.61
1777398962388,1595982,-1.09,-0.43,0.49,134.64,-152.47,-14.77
1777398962388,1595992,-0.97,-0.27,0.49,154.72,-175.54,-24.35
1777398962389,1596002,-0.87,-0.15,0.34,154.24,-193.30,-29.91
1777398962389,1596012,-0.70,-0.07,0.20,145.63,-193.73,-26.73
1777398962389,1596022,-0.55,-0.12,0.07,132.32,-175.60,-13.85
1777398962389,1596032,-0.54,-0.22,-0.04,118.90,-142.33,-1.53
1777398962389,1596042,-0.57,-0.29,-0.03,111.69,-70.62,4.39
1777398962390,1596062,-0.64,-0.15,0.17,59.69,-18.92,0.43
1777398962390,1596082,-0.61,0.22,0.00,-42.60,32.41,65.86
1777398962390,1596102,-1.04,-0.74,1.77,-32.59,31.13,112.85
1777398962390,1596122,-0.47,-0.05,0.37,32.90,-133.97,47.24
1777398962390,1596132,-0.50,0.34,0.37,20.81,-120.12,50.05
1777398962391,1596142,-0.60,0.10,0.52,3.17,-89.66,83.31
1777398962391,1596152,-0.75,-0.32,0.67,-12.45,-75.56,102.36
1777398962391,1596162,-0.89,-0.45,0.76,-9.95,-74.34,92.65
1777398962391,1596172,-0.92,-0.41,0.68,26.18,-83.44,69.82
1777398962391,1596182,-0.83,-0.29,0.52,58.29,-88.44,42.54
1777398962392,1596192,-1.08,-0.68,0.86,66.77,-73.12,16.42
1777398962392,1596202,-0.90,-0.23,1.15,74.40,-69.82,-22.46
1777398962392,1596212,-0.53,0.13,0.70,91.37,-87.22,-39.00
1777398962392,1596222,-1.05,-0.03,0.69,76.05,-73.85,-25.63
1777398962392,1596232,-0.67,-0.24,0.68,49.26,-49.68,-21.12
1777398962393,1596242,-0.85,-0.17,0.84,48.71,-37.29,-23.50
1777398962393,1596252,-0.88,-0.09,0.99,53.59,-37.66,-16.91
1777398962393,1596262,-0.87,-0.09,0.92,46.57,-43.88,-8.24
1777398962393,1596272,-0.85,0.06,0.83,32.96,-49.07,4.58
1777398962393,1596282,-0.90,-0.11,0.87,15.38,-45.84,17.46
1777398962394,1596292,-0.91,-0.20,1.04,-26.43,-40.65,18.37
1777398962394,1596302,-0.68,-0.39,0.88,-32.17,-50.17,13.12
1777398962394,1596312,-0.34,-0.45,0.57,6.10,-55.97,3.17
1777398962394,1596322,-0.39,-0.46,0.53,35.77,-50.29,-26.98
1777398962394,1596332,-0.31,0.53,0.76,67.81,-62.26,-64.70
1777398962395,1596342,0.08,0.50,0.60,137.45,-116.46,-27.10
1777398962395,1596352,-0.29,-0.04,0.36,128.11,-152.71,-8.18
1777398962395,1596362,-0.76,-0.28,0.32,96.37,-143.37,-41.32
1777398962395,1596372,-0.81,-0.37,0.76,134.64,-104.61,-34.18
1777398962395,1596382,-0.81,-0.27,0.68,160.89,-134.40,-63.60
1777398962395,1596402,-0.39,-0.08,0.72,170.17,-263.31,-84.90
1777398962396,1596422,-0.32,0.09,1.01,281.07,-288.02,-59.81
1777398962396,1596442,0.08,0.51,0.61,295.41,-274.66,-3.30
1777398962396,1596462,0.25,0.45,0.89,159.00,-164.79,43.33
1777398962396,1596472,0.07,0.44,0.91,70.43,-131.65,39.55
1777398962396,1596482,-0.08,0.30,0.94,4.09,-107.85,33.63
1777398962396,1596492,-0.09,0.32,0.99,-6.71,-93.81,28.87
1777398962397,1596502,-0.04,0.35,0.98,-10.62,-99.30,31.07
1777398962397,1596512,-0.02,0.46,1.00,-17.64,-108.40,37.90
1777398962397,1596522,-0.09,0.34,1.73,-23.74,-116.27,45.96
1777398962397,1596532,-0.05,0.23,1.88,25.94,-165.71,47.36
1777398962397,1596542,0.08,0.33,1.01,166.08,-196.29,53.59
1777398962398,1596552,-0.02,1.11,2.77,168.15,-73.97,36.01
1777398962398,1596562,0.17,0.21,0.74,-10.44,45.04,2.50
1777398962398,1596572,0.05,0.42,0.75,56.64,60.12,-3.60
1777398962398,1596582,0.06,0.57,0.66,15.99,60.36,-12.15
1777398962398,1596592,-0.01,0.46,0.71,-41.87,41.63,0.49
1777398962398,1596602,-0.04,0.35,0.61,-76.66,7.63,8.67
1777398962398,1596612,-0.02,0.41,0.62,-89.90,-24.05,5.49
1777398962399,1596622,0.03,0.37,0.80,-99.79,-45.29,3.60
1777398962399,1596632,0.09,0.22,0.99,-97.66,-69.21,1.89
1777398962399,1596642,0.16,0.33,1.86,-112.73,-67.08,-13.37
1777398962399,1596652,0.19,0.13,1.45,-134.46,-28.02,-26.31
1777398962399,1596662,0.13,0.06,0.78,-52.06,-10.93,-22.95
1777398962399,1596672,0.08,0.17,0.76,13.24,26.37,-23.74
1777398962400,1596682,0.03,0.23,0.86,28.63,49.38,-21.36
1777398962400,1596692,-0.05,0.30,0.84,0.85,48.40,-21.73
1777398962400,1596702,-0.07,0.33,0.82,-55.79,33.69,-21.79
1777398962400,1596712,-0.14,0.33,0.73,-125.43,14.16,-19.35
1777398962400,1596722,-0.11,0.25,0.62,-194.82,-0.31,-13.37
1777398962400,1596732,-0.01,0.26,0.44,-260.62,-4.46,-4.21
1777398962401,1596752,1.36,-1.96,0.91,-75.07,129.70,-3.97
1777398962401,1596772,0.04,0.24,0.68,24.11,14.95,-29.11
1777398962401,1596792,0.02,0.09,1.07,1.22,-5.07,-12.88
1777398962401,1596802,0.01,0.00,0.99,2.14,-4.82,-6.41
1777398962401,1596812,0.01,-0.00,1.01,2.38,-4.76,-4.21
1777398962401,1596822,0.01,-0.01,0.98,2.50,-4.94,-4.15
1777398962401,1596832,0.01,-0.00,1.01,2.69,-4.52,-4.09
1777398962402,1596842,0.01,-0.00,1.00,2.69,-4.39,-4.39
1777398962402,1596852,0.01,-0.00,1.00,2.44,-4.39,-4.76
1777398962402,1596862,0.01,-0.00,1.01,2.50,-4.39,-4.70
1777398962402,1596872,0.01,-0.00,1.00,2.56,-4.52,-4.64
1777398962402,1596882,0.01,-0.00,1.00,2.50,-4.64,-4.64
1777398962402,1596892,0.01,-0.00,1.01,2.44,-4.70,-4.52
1777398962403,1596902,0.01,-0.00,1.01,2.26,-4.64,-4.52
1777398962403,1596912,0.01,-0.00,1.00,2.26,-4.64,-4.70
1777398962403,1596922,0.01,-0.00,1.00,2.44,-4.58,-4.64
1777398962403,1596932,0.01,-0.00,1.00,2.50,-4.64,-4.52
1777398962403,1596942,0.01,-0.00,1.00,2.62,-4.52,-4.27
1777398962403,1596952,0.01,-0.00,1.00,2.69,-4.52,-3.97
1777398962404,1596962,0.01,-0.00,1.00,2.56,-4.64,-4.27
1777398962404,1596972,0.01,-0.00,1.00,2.44,-4.70,-4.46
1777398962404,1596982,0.01,-0.00,1.00,2.32,-4.76,-4.76
1777398962404,1596992,0.02,-0.00,1.00,2.26,-4.64,-5.13
1777398962404,1597002,0.01,-0.01,1.00,2.38,-4.64,-4.82
1777398962404,1597012,0.01,-0.00,1.00,2.44,-4.58,-4.52
1777398962405,1597022,0.01,-0.00,1.00,2.44,-4.64,-4.70
1777398962405,1597032,0.01,-0.00,1.00,2.38,-4.52,-4.76
1777398962405,1597042,0.01,-0.00,1.00,2.38,-4.70,-4.39
1777398962405,1597052,0.01,-0.00,1.00,2.56,-4.64,-3.97
1777398962405,1597062,0.01,-0.00,1.01,2.56,-4.76,-4.03
1777398962405,1597072,0.01,-0.00,1.00,2.50,-4.70,-4.39
1777398962405,1597092,0.01,-0.00,1.00,2.32,-4.64,-4.64
1777398962406,1597112,0.01,-0.00,1.00,2.56,-4.70,-4.33
1777398962406,1597132,0.01,-0.00,1.00,2.44,-4.70,-4.27
1777398962406,1597152,0.01,-0.00,1.00,2.32,-4.58,-4.64
1777398962406,1597162,0.01,-0.00,1.00,2.32,-4.52,-4.94
1777398962406,1597172,0.01,-0.00,1.00,2.50,-4.52,-4.88
1777398962406,1597182,0.02,-0.02,1.00,2.38,-4.76,-4.76
1777398962406,1597192,0.01,-0.00,1.00,2.20,-4.88,-6.04
1777398962407,1597202,0.01,0.00,1.00,1.95,-5.00,-6.84
1777398962407,1597212,0.01,-0.00,1.00,2.20,-4.70,-5.86
1777398962407,1597222,0.03,-0.04,0.99,2.14,-4.82,-5.68
1777398962407,1597232,0.02,-0.01,1.00,2.50,-4.46,-7.87
1777398962407,1597242,0.00,0.01,1.01,2.56,-4.27,-9.34
1777398962407,1597252,0.00,0.01,1.00,2.56,-4.33,-8.54
1777398962407,1597262,0.02,0.03,1.00,2.44,-4.46,-7.57
1777398962408,1597272,0.01,-0.00,1.00,2.38,-4.58,-5.13
1777398962408,1597282,0.01,-0.00,0.99,2.26,-4.70,-4.58
1777398962408,1597292,0.01,-0.01,1.01,2.32,-4.70,-4.39
1777398962408,1597302,0.01,-0.01,1.00,2.38,-4.82,-4.21
1777398962408,1597312,0.01,-0.00,1.00,2.44,-4.64,-4.76
1777398962408,1597322,0.01,0.01,1.00,2.38,-4.58,-5.13
1777398962408,1597332,0.01,-0.00,1.00,2.20,-4.46,-4.94
1777398962409,1597342,0.01,-0.00,1.00,2.14,-4.39,-5.13
1777398962409,1597352,0.01,-0.01,1.00,2.32,-4.46,-4.88
1777398962409,1597362,0.01,-0.00,1.00,2.38,-4.58,-4.58
1777398962409,1597372,0.01,-0.00,1.01,2.38,-4.70,-4.27
1777398962409,1597382,0.01,-0.00,1.00,2.56,-4.76,-3.97
1777398962409,1597392,0.01,-0.00,1.00,2.44,-4.70,-4.52
1777398962409,1597402,0.01,-0.00,1.00,2.20,-4.52,-5.00
1777398962410,1597412,0.01,-0.00,1.00,2.38,-4.52,-4.58
1777398962410,1597422,0.01,-0.00,1.00,2.62,-4.52,-4.33
1777398962410,1597442,0.01,-0.00,1.00,2.32,-4.64,-4.70
1777398962410,1597462,0.01,-0.00,1.00,2.38,-4.70,-4.39
1777398962410,1597482,0.01,-0.00,1.00,2.32,-4.64,-4.52
1777398962410,1597492,0.01,-0.00,1.00,2.26,-4.52,-4.70
1777398962410,1597502,0.01,-0.00,1.00,2.32,-4.46,-4.82
1777398962410,1597512,0.01,-0.00,1.00,2.26,-4.46,-5.00
1777398962411,1597522,0.01,-0.00,1.00,2.26,-4.58,-4.82
1777398962411,1597532,0.01,-0.00,1.00,2.26,-4.64,-4.64
1777398962411,1597542,0.01,-0.00,1.00,2.44,-4.58,-4.27
1777398962411,1597552,0.01,-0.01,1.00,2.56,-4.64,-3.91
1777398962411,1597562,0.01,-0.00,1.00,2.44,-4.70,-4.03
1777398962411,1597572,0.01,-0.01,1.00,2.38,-4.64,-4.27
1777398962411,1597582,0.01,-0.01,1.00,2.26,-4.58,-4.58
1777398962412,1597592,0.01,-0.00,1.00,2.14,-4.52,-5.13
1777398962412,1597602,0.01,-0.00,1.00,2.32,-4.58,-4.88
1777398962412,1597612,0.01,-0.00,1.00,2.50,-4.64,-4.52
1777398962412,1597622,0.01,-0.00,1.00,2.44,-4.58,-4.46
1777398962412,1597632,0.01,-0.00,1.00,2.50,-4.64,-4.33
1777398962412,1597642,0.01,-0.00,1.00,2.44,-4.58,-4.33
1777398962412,1597652,0.01,-0.00,1.00,2.38,-4.70,-4.58
1777398962413,1597662,0.01,-0.00,1.00,2.38,-4.70,-4.76
1777398962413,1597672,0.01,-0.00,1.00,2.26,-4.58,-4.94
1777398962413,1597682,0.01,-0.00,1.00,2.32,-4.70,-4.70
1777398962413,1597692,0.01,-0.00,1.00,2.38,-4.76,-4.58
1777398962413,1597702,0.01,-0.00,1.00,2.38,-4.58,-4.70
1777398962413,1597712,0.01,-0.00,1.00,2.32,-4.64,-4.88
1777398962413,1597722,0.01,-0.00,1.00,2.44,-4.58,-4.46
1777398962414,1597732,0.01,-0.00,1.00,2.62,-4.64,-3.91
1777398962414,1597742,0.01,-0.00,1.00,2.56,-4.58,-4.09
1777398962414,1597752,0.01,-0.00,1.00,2.50,-4.64,-4.15
1777398962414,1597762,0.01,-0.00,1.00,2.56,-4.76,-4.15
1777398962414,1597782,0.01,-0.00,1.00,2.38,-4.64,-4.52
1777398962414,1597802,0.01,-0.00,1.00,2.62,-4.64,-4.09
1777398962414,1597822,0.01,-0.00,1.00,2.26,-4.64,-4.88
1777398962414,1597842,0.01,-0.00,1.00,2.50,-4.64,-4.33
1777398962415,1597852,0.01,-0.00,1.00,2.44,-4.70,-4.39
1777398962415,1597862,0.01,-0.00,1.00,2.38,-4.64,-4.46
1777398962415,1597872,0.01,-0.00,1.00,2.32,-4.70,-4.70
1777398962415,1597882,0.01,-0.00,1.00,2.26,-4.64,-4.94
1777398962415,1597892,0.01,-0.00,1.00,2.32,-4.58,-4.76
1777398962415,1597902,0.01,-0.00,1.00,2.44,-4.58,-4.64
1777398962415,1597912,0.01,-0.00,1.00,2.44,-4.64,-4.64
1777398962415,1597922,0.01,-0.00,1.00,2.38,-4.64,-4.82
1777398962416,1597932,0.01,-0.00,1.00,2.38,-4.64,-4.76
1777398962416,1597942,0.01,-0.00,1.00,2.38,-4.64,-4.58
1777398962416,1597952,0.01,-0.00,1.00,2.32,-4.64,-4.70
1777398962416,1597962,0.01,-0.00,1.00,2.20,-4.64,-4.94
1777398962416,1597972,0.01,-0.00,1.00,2.38,-4.64,-4.52
1777398962416,1597982,0.01,-0.00,1.00,2.56,-4.76,-3.91
1777398962416,1597992,0.01,-0.00,1.00,2.69,-4.70,-3.91
1777398962416,1598002,0.01,-0.00,1.00,2.56,-4.70,-4.09
1777398962417,1598012,0.01,-0.00,1.00,2.56,-4.70,-4.27
1777398962417,1598022,0.01,-0.00,1.00,2.44,-4.70,-4.52
1777398962417,1598032,0.01,-0.00,1.00,2.44,-4.64,-4.64
1777398962417,1598042,0.01,-0.00,1.00,2.32,-4.64,-4.82
1777398962417,1598052,0.01,-0.00,1.00,2.44,-4.58,-4.39
1777398962417,1598062,0.01,-0.00,1.00,2.62,-4.64,-3.97
1777398962417,1598072,0.01,-0.00,1.00,2.44,-4.64,-4.33
1777398962417,1598082,0.01,-0.00,1.00,2.38,-4.64,-4.82
1777398962418,1598092,0.01,-0.00,1.00,2.38,-4.70,-4.58
1777398962418,1598102,0.01,-0.00,1.00,2.50,-4.64,-4.46
1777398962418,1598112,0.01,-0.00,1.00,2.50,-4.70,-4.52
1777398962418,1598132,0.01,-0.01,1.00,2.56,-4.64,-4.27
1777398962418,1598152,0.01,-0.00,1.00,2.20,-4.58,-5.00
1777398962418,1598172,0.01,-0.00,1.00,2.20,-4.70,-5.07
1777398962418,1598182,0.01,-0.00,1.00,2.32,-4.82,-4.52
1777398962418,1598192,0.01,-0.00,1.00,2.56,-4.76,-3.97
1777398962419,1598202,0.01,-0.00,1.00,2.50,-4.64,-4.33
1777398962419,1598212,0.01,-0.00,1.00,2.44,-4.58,-4.70
1777398962419,1598222,0.01,-0.00,1.00,2.44,-4.58,-4.58
1777398962419,1598232,0.01,-0.00,1.00,2.44,-4.52,-4.39
1777398962419,1598242,0.01,-0.00,1.00,2.38,-4.64,-4.46
1777398962419,1598252,0.01,-0.00,1.00,2.38,-4.70,-4.58
1777398962419,1598262,0.01,-0.00,1.00,2.32,-4.58,-4.76
1777398962419,1598272,0.01,-0.00,1.00,2.26,-4.52,-5.07
1777398962420,1598282,0.01,-0.00,1.00,2.32,-4.58,-4.88
1777398962420,1598292,0.01,-0.00,1.00,2.38,-4.64,-4.52
1777398962420,1598302,0.01,-0.00,1.00,2.44,-4.64,-4.33
1777398962420,1598312,0.01,-0.00,1.00,2.56,-4.64,-4.09
1777398962420,1598322,0.01,-0.00,1.00,2.56,-4.64,-4.27
1777398962420,1598332,0.01,-0.00,1.00,2.50,-4.64,-4.52
1777398962420,1598342,0.01,-0.00,1.00,2.44,-4.58,-4.52
1777398962421,1598352,0.01,-0.00,1.00,2.38,-4.52,-4.58
1777398962421,1598362,0.01,-0.00,1.00,2.38,-4.58,-4.70
1777398962421,1598372,0.01,-0.00,1.00,2.38,-4.52,-4.58
1777398962421,1598382,0.01,-0.00,1.00,2.32,-4.52,-4.82
1777398962421,1598392,0.01,-0.00,1.00,2.20,-4.58,-5.13
1777398962421,1598402,0.01,-0.00,1.00,2.32,-4.58,-4.70
1777398962421,1598412,0.01,-0.00,1.00,2.62,-4.58,-4.27
1777398962421,1598422,0.01,-0.00,1.00,2.44,-4.64,-4.58
1777398962422,1598432,0.01,-0.00,1.00,2.32,-4.52,-5.13
1777398962422,1598442,0.01,-0.00,1.00,2.38,-4.70,-4.58
1777398962422,1598452,0.01,-0.00,1.00,2.62,-4.58,-4.27
1777398962422,1598472,0.01,-0.00,1.00,2.44,-4.64,-4.58
1777398962422,1598492,0.01,-0.00,1.00,2.50,-4.64,-4.46
1777398962422,1598512,0.01,-0.00,1.00,2.62,-4.64,-3.97
1777398962422,1598532,0.01,-0.00,1.00,2.56,-4.64,-4.27
1777398962422,1598542,0.01,-0.00,1.00,2.44,-4.58,-4.52
1777398962423,1598552,0.01,-0.00,1.00,2.38,-4.58,-4.76
1777398962423,1598562,0.01,-0.00,1.00,2.26,-4.58,-5.00
1777398962423,1598572,0.01,-0.00,1.00,2.44,-4.64,-4.64
1777398962423,1598582,0.01,-0.00,1.00,2.56,-4.70,-4.21
1777398962423,1598592,0.01,-0.00,1.00,2.56,-4.76,-4.15
1777398962423,1598602,0.01,-0.00,1.00,2.56,-4.70,-4.03
1777398962423,1598612,0.01,-0.00,1.00,2.62,-4.70,-4.09
1777398962423,1598622,0.01,-0.00,1.00,2.56,-4.70,-4.09
1777398962423,1598632,0.01,-0.00,1.00,2.44,-4.64,-4.39
1777398962424,1598642,0.01,-0.00,1.00,2.20,-4.58,-4.94
1777398962424,1598652,0.01,-0.00,1.00,2.38,-4.52,-4.46
1777398962424,1598662,0.01,-0.00,1.00,2.69,-4.64,-3.91
1777398962424,1598672,0.01,-0.00,1.00,2.56,-4.64,-4.21
1777398962424,1598682,0.01,-0.00,1.00,2.50,-4.64,-4.46
1777398962424,1598692,0.01,-0.00,1.00,2.50,-4.58,-4.70
1777398962424,1598702,0.01,-0.00,1.00,2.26,-4.52,-5.07
1777398962424,1598712,0.01,-0.00,1.00,2.32,-4.52,-5.00
1777398962425,1598722,0.01,-0.00,1.00,2.32,-4.70,-4.76
1777398962425,1598732,0.01,-0.00,1.00,2.44,-4.64,-4.52
1777398962425,1598742,0.01,-0.00,1.00,2.56,-4.64,-4.21
1777398962425,1598752,0.01,-0.00,1.00,2.50,-4.70,-4.33
1777398962425,1598762,0.01,-0.00,1.00,2.44,-4.64,-4.64
1777398962425,1598772,0.01,-0.00,1.00,2.38,-4.76,-4.88
1777398962425,1598782,0.01,-0.00,1.00,2.26,-4.64,-5.00
1777398962425,1598792,0.01,-0.00,1.00,2.32,-4.64,-4.82
1777398962426,1598802,0.01,-0.00,1.00,2.44,-4.64,-4.33
1777398962426,1598822,0.01,-0.00,1.00,2.56,-4.58,-4.21
1777398962426,1598842,0.01,-0.00,1.00,2.38,-4.64,-4.76
1777398962426,1598862,0.01,-0.00,0.99,2.32,-4.52,-5.00
1777398962426,1598872,0.01,-0.00,1.01,2.32,-4.52,-5.00
1777398962426,1598882,0.01,-0.00,1.00,2.26,-4.58,-5.00
1777398962426,1598892,0.01,-0.01,1.00,2.32,-4.58,-4.94
1777398962426,1598902,0.01,-0.00,0.99,2.56,-4.64,-4.52
1777398962426,1598912,0.01,-0.00,1.01,2.62,-4.70,-3.97
1777398962427,1598922,0.01,-0.00,0.98,2.32,-4.76,-4.46
1777398962427,1598932,0.01,-0.01,1.02,2.08,-4.64,-5.07
1777398962427,1598942,0.01,-0.00,1.00,2.14,-4.70,-5.00
1777398962427,1598952,0.01,-0.01,1.01,2.26,-4.70,-4.88
1777398962427,1598962,0.01,-0.00,1.00,2.38,-4.70,-4.70
1777398962427,1598972,0.01,-0.00,0.99,2.50,-4.64,-4.52
1777398962427,1598982,0.01,-0.00,1.01,2.50,-4.58,-4.58
1777398962427,1598992,0.01,-0.00,1.00,2.50,-4.52,-4.58
1777398962428,1599002,0.01,-0.00,1.00,2.50,-4.64,-4.58
1777398962428,1599012,0.01,-0.00,0.99,2.44,-4.58,-4.58
1777398962428,1599022,0.01,-0.00,1.00,2.38,-4.58,-4.39
1777398962428,1599032,0.01,-0.00,1.00,2.44,-4.64,-4.21
1777398962428,1599042,0.01,-0.00,1.00,2.38,-4.52,-4.39
1777398962428,1599052,0.01,-0.00,1.01,2.32,-4.64,-4.64
1777398962428,1599062,0.01,-0.01,1.01,2.44,-4.58,-4.33
1777398962428,1599072,0.01,-0.01,1.00,2.69,-4.58,-4.09
1777398962428,1599082,0.01,-0.00,1.00,2.69,-4.70,-3.97
1777398962429,1599092,0.01,-0.00,0.99,2.62,-4.64,-4.03
1777398962429,1599102,0.01,0.00,0.98,2.50,-4.64,-4.33
1777398962429,1599112,0.02,-0.01,1.01,2.32,-4.64,-4.70
1777398962429,1599122,0.01,-0.00,1.00,2.32,-4.58,-4.82
1777398962429,1599132,0.01,-0.00,1.01,2.14,-4.64,-4.94
1777398962429,1599142,0.01,-0.00,1.00,2.26,-4.70,-4.64
1777398962429,1599162,0.01,-0.01,1.01,2.44,-4.76,-4.58
1777398962429,1599182,0.02,-0.00,1.01,2.26,-4.52,-4.94
1777398962429,1599202,0.02,-0.00,1.00,2.26,-4.76,-4.82
1777398962430,1599222,0.01,-0.00,1.01,2.20,-4.46,-5.07
1777398962430,1599232,0.01,-0.00,1.00,2.38,-4.46,-4.76
1777398962430,1599242,0.01,-0.00,1.00,2.50,-4.52,-4.52
1777398962430,1599252,0.01,-0.00,1.00,2.32,-4.52,-4.70
1777398962430,1599262,0.01,-0.00,1.01,2.26,-4.52,-5.00
1777398962430,1599272,0.01,-0.00,1.00,2.32,-4.46,-5.07
1777398962430,1599282,0.01,-0.00,1.00,2.32,-4.52,-5.00
1777398962430,1599292,0.01,-0.00,1.00,2.38,-4.46,-4.70
1777398962431,1599302,0.01,-0.00,1.00,2.44,-4.46,-4.52
1777398962431,1599312,0.01,-0.00,1.00,2.50,-4.58,-4.39
1777398962431,1599322,0.01,-0.00,1.00,2.50,-4.58,-4.27
1777398962431,1599332,0.01,-0.00,1.00,2.62,-4.58,-4.21
1777398962431,1599342,0.01,-0.00,1.00,2.50,-4.64,-4.09
1777398962431,1599352,0.01,-0.00,1.00,2.44,-4.64,-4.27
1777398962431,1599362,0.01,-0.00,1.00,2.38,-4.52,-4.58
1777398962431,1599372,0.01,-0.00,1.00,2.44,-4.64,-4.33
1777398962431,1599382,0.01,-0.01,1.00,2.56,-4.58,-4.09
1777398962432,1599392,0.01,-0.01,1.00,2.75,-4.33,-4.33
1777398962432,1599402,0.01,-0.01,1.00,2.56,-4.46,-4.52
1777398962432,1599412,0.01,-0.00,1.00,2.50,-4.46,-4.64
1777398962432,1599422,0.01,-0.00,1.00,2.56,-4.39,-4.76
1777398962432,1599432,0.01,-0.00,1.00,2.56,-4.46,-4.76
1777398962432,1599442,0.01,-0.00,1.00,2.56,-4.52,-4.94
1777398962432,1599452,0.01,-0.01,1.00,2.62,-4.82,-4.70
1777398962432,1599462,0.03,-0.04,1.00,2.50,-4.94,-4.94
1777398962433,1599472,0.03,-0.03,1.00,2.38,-5.00,-7.57
1777398962433,1599482,0.03,-0.08,1.00,2.50,-4.82,-11.05
1777398962433,1599492,0.01,-0.01,1.00,2.62,-4.64,-19.90
1777398962433,1599512,0.03,-0.04,1.00,2.87,-4.33,-21.18
1777398962433,1599532,0.01,0.00,1.00,2.81,-4.58,-18.68
1777398962433,1599552,-0.01,0.05,1.00,2.50,-4.70,-14.89
1777398962433,1599562,-0.01,0.05,0.99,2.56,-4.64,-9.58
1777398962433,1599572,0.01,0.00,1.00,2.56,-4.70,-5.62
1777398962433,1599582,0.01,-0.00,1.00,2.44,-4.58,-4.76
1777398962434,1599592,0.01,-0.00,1.00,2.32,-4.52,-5.07
1777398962434,1599602,0.01,-0.00,1.00,2.50,-4.58,-4.82
1777398962434,1599612,0.01,-0.00,1.00,2.44,-4.70,-4.46
1777398962434,1599622,0.01,-0.00,1.00,2.44,-4.76,-4.33
1777398962434,1599632,0.01,-0.00,1.00,2.50,-4.76,-4.15
1777398962434,1599642,0.01,-0.00,1.00,2.56,-4.70,-4.39
1777398962434,1599652,0.01,-0.00,1.00,2.38,-4.64,-4.64
1777398962434,1599662,0.01,-0.00,1.00,2.32,-4.76,-4.88
1777398962434,1599672,0.01,-0.00,1.00,2.32,-4.58,-5.07
1777398962435,1599682,0.01,-0.00,1.00,2.26,-4.58,-5.00
1777398962435,1599692,0.01,-0.00,1.00,2.26,-4.58,-5.07
1777398962435,1599702,0.01,-0.00,1.00,2.38,-4.64,-4.64
1777398962435,1599712,0.01,-0.00,1.00,2.62,-4.64,-4.09
1777398962435,1599722,0.01,-0.00,1.00,2.62,-4.76,-4.27
1777398962435,1599732,0.01,-0.00,1.00,2.44,-4.64,-4.58
1777398962435,1599742,0.01,-0.00,1.00,2.38,-4.64,-4.64
1777398962435,1599752,0.01,-0.00,1.00,2.44,-4.64,-4.70
1777398962436,1599762,0.01,-0.00,1.00,2.50,-4.64,-4.58
1777398962436,1599772,0.01,-0.00,1.00,2.44,-4.58,-4.58
1777398962436,1599782,0.01,-0.00,1.00,2.38,-4.70,-4.58
1777398962436,1599792,0.01,-0.00,1.00,2.38,-4.64,-4.58
1777398962436,1599802,0.01,-0.00,1.00,2.56,-4.64,-4.33
1777398962436,1599812,0.01,-0.00,1.00,2.62,-4.64,-4.09
1777398962436,1599822,0.01,-0.00,1.00,2.50,-4.58,-4.52
1777398962436,1599832,0.01,-0.00,1.00,2.26,-4.64,-4.58
1777398962436,1599852,0.01,-0.00,0.99,2.44,-4.64,-4.27
1777398962437,1599872,-0.37,-0.70,1.00,3.17,-4.27,32.04
1777398962437,1599892,0.17,-0.56,0.99,1.71,-4.88,34.18
1777398962437,1599912,0.20,2.03,1.52,-22.64,-1.40,-23.74
1777398962437,1599922,-0.08,0.29,0.84,-67.99,-7.20,-72.75
1777398962437,1599932,0.23,-0.09,0.80,0.55,6.96,21.67
1777398962437,1599942,0.28,0.26,1.18,29.60,7.39,15.99
1777398962437,1599952,0.17,0.06,1.14,0.18,-12.39,-8.12
1777398962437,1599962,0.34,-0.01,1.20,-26.31,-4.46,-37.72
1777398962437,1599972,0.44,0.02,1.18,-57.50,13.55,-67.75
1777398962438,1599982,0.31,-0.17,1.30,-105.90,39.67,-90.27
1777398962438,1599992,-0.20,-0.53,1.83,-129.94,75.62,-99.12
1777398962438,1600002,-0.75,-0.66,2.17,-63.48,125.73,-69.09
1777398962438,1600012,-0.75,-0.61,2.23,63.96,167.97,-4.82
1777398962438,1600022,-0.25,-0.45,2.10,204.28,199.46,58.65
1777398962438,1600032,0.27,-0.16,1.98,300.35,226.32,94.18
1777398962438,1600042,0.43,-0.03,1.80,339.42,247.13,108.58
1777398962438,1600052,0.20,-0.13,1.63,361.02,264.16,111.57
1777398962439,1600062,0.05,-0.10,1.65,383.73,272.71,108.58
1777398962439,1600072,0.05,0.03,1.59,409.36,276.06,83.68
1777398962439,1600082,0.12,0.09,1.60,430.18,275.76,44.19
1777398962439,1600092,0.10,0.09,1.54,453.74,278.75,5.80
1777398962439,1600102,0.15,0.04,1.47,483.83,290.83,-34.79
1777398962439,1600112,0.21,-0.07,1.26,511.41,309.14,-80.32
1777398962439,1600122,0.10,0.11,1.27,527.83,329.22,-125.55
1777398962439,1600132,0.10,0.19,1.26,541.38,335.33,-152.71
1777398962440,1600142,0.37,0.36,1.04,570.13,322.63,-171.20
1777398962440,1600152,0.58,0.52,-0.79,610.72,319.95,-171.33
1777398962440,1600162,0.05,0.12,-0.71,641.17,420.78,-163.33
1777398962440,1600172,-0.10,0.15,-0.15,640.08,475.10,-180.85
1777398962440,1600182,-0.32,0.13,-0.66,592.10,329.83,-172.42
1777398962440,1600202,-0.22,-0.13,-1.06,176.45,225.95,-146.00
1777398962440,1600222,-0.36,-0.15,-0.78,-5.13,114.26,-128.11
1777398962440,1600242,-0.46,-0.33,-1.12,-170.10,31.19,-127.75
1777398962441,1600252,-0.53,-0.39,-1.14,-239.81,4.09,-128.78
1777398962441,1600262,-0.53,-0.27,-1.15,-312.56,-31.37,-138.79
1777398962441,1600272,-0.42,-0.09,-1.03,-391.91,-77.88,-154.42
1777398962441,1600282,-0.67,0.03,-0.62,-493.71,-144.41,-175.96
1777398962441,1600292,-0.72,0.27,-0.40,-607.36,-228.52,-216.67
1777398962441,1600302,-0.69,0.41,-0.01,-710.69,-302.06,-252.69
1777398962441,1600312,-1.16,0.78,0.12,-786.01,-364.14,-306.58
1777398962442,1600322,-1.26,0.57,0.26,-811.65,-404.11,-334.96
1777398962442,1600332,-1.03,0.68,0.29,-768.37,-423.22,-345.76
1777398962442,1600342,-1.13,0.73,0.11,-683.23,-405.46,-333.56
1777398962442,1600352,-1.34,0.68,-0.08,-562.50,-371.15,-279.85
1777398962442,1600362,-1.16,0.29,-0.03,-327.82,-293.03,-189.64
1777398962442,1600372,-0.97,-0.10,0.11,8.73,-138.73,-68.24
1777398962442,1600382,-0.67,-0.03,0.67,326.72,65.67,58.41
1777398962442,1600392,-1.39,-0.22,0.99,544.74,253.48,163.94
1777398962443,1600402,-1.22,-0.05,0.93,671.81,396.06,246.52
1777398962443,1600412,-0.95,0.14,0.82,728.03,472.35,264.89
1777398962443,1600422,-0.80,0.08,0.68,758.48,504.21,264.71
1777398962443,1600432,-0.64,-0.06,0.46,757.69,497.50,245.36
1777398962443,1600442,-0.50,-0.39,0.30,640.14,449.16,201.23
1777398962443,1600452,-0.53,-0.33,0.18,395.14,346.92,109.19
1777398962443,1600462,-0.65,-0.00,0.13,47.30,197.81,-11.84
1777398962443,1600472,-0.68,0.37,-0.15,-298.34,17.94,-134.89
1777398962444,1600482,-0.76,0.66,-0.34,-516.48,-115.54,-227.36
1777398962444,1600492,-0.64,0.64,-0.57,-589.36,-179.08,-277.65
1777398962444,1600502,-0.66,0.68,-0.55,-551.70,-174.62,-294.98
1777398962444,1600512,-0.92,0.87,-0.66,-456.85,-148.80,-272.89
1777398962444,1600522,-0.85,0.65,-0.78,-300.17,-127.01,-110.84
1777398962444,1600542,-1.08,0.27,-0.21,416.56,112.61,128.72
1777398962444,1600562,-1.14,-0.18,0.23,582.89,265.93,259.77
1777398962444,1600582,-0.44,-0.34,0.01,445.92,298.03,280.33
1777398962445,1600602,-0.58,0.27,-0.00,-131.65,149.41,75.26
1777398962445,1600612,-0.92,0.73,-0.07,-433.96,-7.75,-72.02
1777398962445,1600622,-1.02,0.92,-0.39,-649.78,-154.48,-200.20
1777398962445,1600632,-1.00,1.11,-0.54,-713.26,-228.94,-291.63
1777398962445,1600642,-1.04,1.49,-0.71,-647.71,-243.35,-331.54
1777398962445,1600652,-0.91,1.48,-0.86,-500.31,-239.93,-307.43
1777398962445,1600662,-0.84,1.24,-0.81,-256.41,-212.52,-228.82
1777398962445,1600672,-0.95,0.70,-0.60,33.02,-156.19,-105.16
1777398962446,1600682,-1.20,0.35,-0.05,315.00,-79.10,31.62
1777398962446,1600692,-1.21,0.22,0.26,536.32,10.19,158.51
1777398962446,1600702,-1.09,0.37,0.25,671.75,104.13,256.35
1777398962446,1600712,-1.19,0.05,0.42,716.43,193.60,323.36
1777398962446,1600722,-0.89,-0.12,0.50,677.31,261.66,343.14
1777398962446,1600732,-0.49,-0.16,0.38,523.50,299.01,299.50
1777398962446,1600742,-0.56,-0.04,0.24,258.36,287.05,209.35
1777398962452,1600752,-0.84,0.27,0.32,-108.76,188.11,64.88
1777398962462,1600762,-1.11,0.78,0.27,-522.58,16.05,-104.00
1777398962472,1600772,-0.98,1.07,-0.11,-826.97,-144.04,-237.55
1777398962482,1600782,-1.02,1.37,-0.31,-925.84,-221.86,-310.79
1777398962492,1600792,-1.08,2.01,-0.68,-847.17,-238.83,-324.95
1777398962502,1600802,-0.83,1.94,-1.04,-639.34,-228.88,-283.69
1777398962512,1600812,-0.51,1.49,-1.12,-282.59,-175.90,-205.02
1777398962522,1600822,-0.66,0.97,-0.47,141.60,-88.68,-86.36
1777398962532,1600832,-0.99,0.66,0.00,520.87,-15.87,51.88
1777398962542,1600842,-0.93,0.42,0.22,745.12,38.09,172.12
1777398962552,1600852,-0.85,0.15,0.38,816.41,82.34,256.47
1777398962562,1600862,-0.87,-0.28,0.57,754.09,133.36,295.04
1777398962582,1600882,-0.77,-0.16,0.66,-272.64,136.23,37.17
1777398962602,1600902,-0.98,1.18,-0.07,-932.13,-118.16,-226.20
1777398962622,1600922,-0.92,2.06,-0.48,-743.04,-127.56,-279.72
1777398962642,1600942,-0.40,1.49,-0.91,-107.73,-88.75,-156.86
1777398962652,1600952,-0.58,1.02,-0.31,321.17,-29.91,-39.55
1777398962662,1600962,-0.89,0.74,0.18,687.50,15.81,100.52
1777398962672,1600972,-0.86,0.54,0.43,904.17,41.14,218.26
1777398962682,1600982,-0.87,0.50,0.59,979.06,68.18,300.90
1777398962692,1600992,-0.85,0.26,0.71,910.77,107.30,338.20
1777398962702,1601002,-0.79,0.11,0.68,745.67,164.31,298.03
1777398962712,1601012,-1.02,-0.11,0.58,465.15,204.65,185.73
1777398962722,1601022,-1.11,0.06,0.65,-2.56,162.17,7.81
1777398962732,1601032,-0.76,0.50,0.34,-537.23,61.10,-179.63
1777398962743,1601042,-0.68,0.70,0.10,-904.91,-14.53,-288.09
1777398962752,1601052,-0.78,1.15,0.07,-1030.21,-62.32,-330.63
1777398962762,1601062,-0.81,1.56,-0.13,-977.11,-103.21,-339.54
1777398962772,1601072,-0.93,1.92,-0.49,-815.98,-124.88,-327.94
1777398962782,1601082,-0.83,2.05,-1.00,-568.12,-135.13,-288.82
1777398962794,1601092,-0.47,1.70,-1.07,-206.05,-120.42,-211.43
1777398962802,1601102,-0.49,1.02,-0.42,272.64,-57.43,-89.05
1777398962812,1601112,-0.85,0.65,0.15,700.26,6.47,60.12
1777398962822,1601122,-0.89,0.41,0.43,907.17,44.62,181.34
1777398962835,1601132,-0.93,0.21,0.68,917.05,74.40,251.59
1777398962842,1601142,-0.76,-0.07,0.77,789.86,107.60,268.01
1777398962852,1601152,-0.88,-0.05,0.80,551.64,156.74,217.96
1777398962862,1601162,-1.10,0.10,0.83,172.42,168.21,93.69
1777398962874,1601172,-0.90,0.41,0.58,-296.81,99.55,-71.53
1777398962882,1601182,-0.68,0.67,0.24,-667.66,19.65,-190.12
1777398962892,1601192,-0.84,0.98,-0.04,-830.63,-35.64,-243.96
1777398962903,1601202,-0.91,1.49,-0.25,-794.68,-79.28,-262.21
1777398962912,1601212,-1.08,1.92,-0.67,-636.05,-114.32,-202.09
1777398962932,1601232,-0.49,1.39,-0.61,451.90,-25.15,5.86
1777398962952,1601252,-0.87,0.66,0.40,877.93,39.25,220.89
1777398962972,1601272,-0.84,0.16,0.62,829.41,100.04,272.52
1777398962992,1601292,-1.19,-0.18,0.80,279.85,176.09,74.40
1777398963002,1601302,-1.03,0.22,0.74,-264.34,142.33,-112.37
1777398963012,1601312,-0.63,0.62,0.45,-785.89,64.64,-261.35
1777398963022,1601322,-0.67,1.00,0.13,-1089.17,-2.87,-331.67
1777398963032,1601332,-0.88,1.48,0.01,-1148.38,-62.81,-363.83
1777398963042,1601342,-0.97,1.72,-0.35,-1012.08,-113.65,-381.77
1777398963052,1601352,-0.85,1.75,-0.59,-769.78,-135.80,-390.14
1777398963062,1601362,-1.01,1.90,-0.96,-515.50,-151.43,-364.26
1777398963072,1601372,-0.61,1.40,-1.09,-212.28,-165.28,-275.15
1777398963082,1601382,-0.62,0.78,-0.35,254.27,-113.77,-125.79
1777398963092,1601392,-0.95,0.52,0.33,717.47,-38.76,57.31
1777398963102,1601402,-1.18,0.36,0.91,947.45,30.70,223.57
1777398963112,1601412,-1.14,0.22,1.35,927.37,124.88,324.65
1777398963122,1601422,-0.89,-0.23,1.29,782.96,238.04,327.88
1777398963132,1601432,-0.73,0.02,0.75,563.60,321.47,253.72
1777398963142,1601442,-0.92,0.22,0.54,183.59,296.26,119.14
1777398963152,1601452,-1.07,0.89,0.51,-288.88,147.58,-67.57
1777398963162,1601462,-0.86,1.00,-0.05,-675.48,-17.88,-216.86
1777398963172,1601472,-0.94,1.17,-0.27,-828.43,-93.32,-307.92
1777398963182,1601482,-0.95,1.39,-0.29,-765.32,-109.56,-363.95
1777398963192,1601492,-0.87,1.27,-0.55,-595.52,-114.44,-387.21
1777398963202,1601502,-0.94,1.30,-0.72,-414.37,-126.34,-381.16
1777398963212,1601512,-0.87,1.09,-0.83,-227.72,-153.63,-327.76
1777398963222,1601522,-0.92,0.65,-0.44,61.65,-150.21,-222.96
1777398963232,1601532,-1.23,0.45,0.54,427.98,-80.51,-87.77
1777398963242,1601542,-1.54,0.37,1.35,662.23,43.52,49.80
1777398963252,1601552,-1.56,0.42,1.78,712.28,221.50,145.14
1777398963272,1601572,-1.17,0.60,1.06,600.46,509.28,57.62
1777398963293,1601592,-0.63,-0.32,-0.58,275.09,332.34,-42.72
1777398963312,1601612,-0.12,-0.20,-1.09,-256.16,-38.76,-229.68
1777398963332,1601632,-0.04,-0.02,-1.36,-605.65,-381.41,-419.01
1777398963342,1601642,-0.13,0.11,-1.35,-619.32,-443.73,-452.88
1777398963352,1601652,-0.42,0.33,-1.21,-558.96,-463.99,-442.81
1777398963362,1601662,-0.79,0.55,-1.14,-448.24,-461.91,-385.93
1777398963372,1601672,-0.99,0.34,-0.69,-263.12,-431.76,-278.63
1777398963382,1601682,-1.25,0.01,0.17,-3.42,-346.50,-135.38
1777398963392,1601692,-1.47,-0.27,1.14,237.37,-199.95,24.05
1777398963402,1601702,-1.54,-0.12,1.78,372.31,-2.32,160.95
1777398963412,1601712,-1.58,-0.05,1.70,396.67,187.74,246.03
1777398963422,1601722,-1.21,0.19,1.34,414.61,315.43,282.17
1777398963432,1601732,-0.92,0.29,0.90,468.14,381.04,308.59
1777398963442,1601742,-0.51,-0.12,0.41,525.09,395.63,332.15
1777398963452,1601752,-0.26,-0.43,-0.03,542.60,371.03,328.06
1777398963462,1601762,-0.21,-0.82,-0.75,394.23,280.09,253.60
1777398963472,1601772,-0.52,-0.77,-0.56,60.91,106.14,62.13
1777398963482,1601782,-0.62,0.13,-0.26,-353.64,-133.12,-178.10
1777398963492,1601792,-0.52,0.34,-0.45,-656.43,-298.89,-343.87
1777398963502,1601802,-0.55,0.38,-0.58,-723.45,-331.30,-421.33
1777398963512,1601812,-0.91,0.75,-0.49,-602.48,-303.47,-430.54
1777398963522,1601822,-0.96,0.54,-0.34,-398.50,-302.80,-368.41
1777398963532,1601832,-0.93,-0.06,0.40,-122.86,-285.28,-232.79
1777398963542,1601842,-1.52,-0.47,1.25,181.27,-177.31,-18.62
1777398963552,1601852,-1.61,-0.23,1.81,395.45,0.18,209.53
1777398963562,1601862,-1.54,0.11,1.78,469.79,200.44,370.91
1777398963572,1601872,-1.21,0.27,1.20,518.43,341.80,442.81
1777398963582,1601882,-0.43,0.37,0.86,612.18,416.63,449.40
1777398963592,1601892,-0.14,0.29,0.19,662.72,429.87,432.50
1777398963602,1601902,-0.35,-0.46,-0.59,551.33,353.39,176.76
1777398963622,1601922,-0.60,-0.01,-0.37,-717.90,-210.33,-320.31
1777398963642,1601942,-0.51,0.54,-1.00,-936.28,-275.57,-444.09
1777398963662,1601962,-0.76,0.96,-0.77,-530.52,-363.34,-394.84
1777398963682,1601982,-1.01,0.10,0.44,-46.20,-409.30,-140.75
1777398963693,1601992,-1.21,-0.05,1.37,161.87,-308.35,59.88
1777398963702,1602002,-1.33,0.11,2.08,298.77,-103.88,242.37
1777398963712,1602012,-1.44,0.34,2.08,387.08,151.06,337.10
1777398963722,1602022,-1.14,0.93,1.93,454.90,350.22,341.37
1777398963732,1602032,-1.06,1.41,1.67,514.95,459.47,305.30
1777398963744,1602042,-1.09,0.80,0.99,519.17,472.23,246.64
1777398963752,1602052,-0.94,0.14,0.21,412.05,405.40,135.13
1777398963762,1602062,-0.68,0.00,-0.55,141.05,275.09,-28.63
1777398963772,1602072,-0.35,0.45,-0.93,-203.61,100.34,-197.81
1777398963782,1602082,-0.11,0.47,-1.37,-432.31,-68.48,-294.56
1777398963793,1602092,-0.17,0.45,-1.45,-473.51,-163.15,-330.32
1777398963802,1602102,-0.35,0.65,-1.45,-413.45,-207.03,-344.06
1777398963812,1602112,-0.36,0.44,-1.30,-298.71,-250.92,-324.71
1777398963822,1602122,-0.51,0.13,-0.70,-122.31,-272.83,-259.70
1777398963832,1602132,-0.79,0.01,0.16,19.29,-266.72,-157.35
1777398963843,1602142,-1.12,-0.10,0.94,58.23,-222.11,-25.27
1777398963852,1602152,-1.60,0.12,1.86,80.32,-96.44,92.65
1777398963862,1602162,-1.76,0.70,2.28,128.54,96.86,136.78
1777398963872,1602172,-1.74,1.01,2.29,244.63,306.15,106.14
1777398963882,1602182,-1.74,0.85,1.98,387.21,472.29,53.10
1777398963893,1602192,-1.14,0.53,1.55,427.98,556.76,3.78
1777398963903,1602202,-0.98,0.19,0.46,352.48,570.37,-41.50
1777398963912,1602212,-0.55,-0.03,-0.47,191.83,493.35,-99.98
1777398963922,1602222,0.20,-0.16,-1.36,30.76,324.46,-166.44
1777398963932,1602232,0.57,-0.34,-1.96,-95.89,116.03,-212.04
1777398963943,1602242,0.83,-0.41,-2.36,-183.04,-106.14,-244.20
1777398963962,1602262,0.61,-0.29,-2.20,-22.95,-514.77,-154.42
1777398963982,1602282,0.10,-0.02,-0.23,212.22,-564.45,63.23
1777398964002,1602302,-0.67,0.39,2.03,146.48,-504.09,127.56
1777398964022,1602322,-2.04,0.89,2.76,-178.41,-300.84,45.35
1777398964032,1602332,-1.89,0.77,2.65,-168.09,-116.82,-23.80
1777398964042,1602342,-1.59,0.65,2.64,-4.52,101.62,-48.77
1777398964053,1602352,-1.62,0.31,2.47,169.07,299.32,-20.63
1777398964062,1602362,-1.45,0.14,2.04,251.22,445.62,13.00
1777398964072,1602372,-1.02,-0.08,1.38,265.50,538.39,31.31
1777398964082,1602382,-0.61,-0.13,0.53,260.80,579.83,31.92
1777398964092,1602392,-0.19,-0.30,-0.43,216.61,541.38,20.51
1777398964102,1602402,0.37,-0.57,-1.33,136.29,412.48,-1.71
1777398964112,1602412,0.65,-0.57,-2.14,31.92,218.32,-34.36
1777398964122,1602422,0.86,-0.63,-2.66,-90.21,-35.89,-70.43
1777398964132,1602432,0.79,-0.41,-2.57,-156.98,-290.16,-86.55
1777398964142,1602442,0.62,-0.18,-2.03,-153.87,-488.16,-83.74
1777398964152,1602452,0.31,0.15,-1.27,-111.39,-606.20,-71.53
1777398964162,1602462,-0.15,0.41,-0.18,-65.55,-650.63,-59.14
1777398964172,1602472,-0.69,0.39,1.12,-32.96,-629.27,-49.19
1777398964182,1602482,-1.37,0.41,2.24,-26.61,-526.31,-23.80
1777398964192,1602492,-1.76,0.52,2.85,-20.20,-335.45,-1.65
1777398964202,1602502,-1.68,0.78,3.72,62.56,-71.96,-18.43
1777398964212,1602512,-1.59,0.81,3.86,188.35,201.90,-59.63
1777398964222,1602522,-1.62,0.69,3.81,245.73,406.80,-86.79
1777398964232,1602532,-1.53,0.41,3.22,207.34,525.70,-100.46
1777398964242,1602542,-1.08,0.43,2.43,119.69,602.78,-108.15
1777398964252,1602552,-0.55,0.13,1.25,62.07,671.94,-101.44
1777398964262,1602562,0.11,-0.21,0.28,69.58,736.63,-103.15
1777398964272,1602572,1.13,-0.56,-1.22,51.57,704.59,-106.81
1777398964282,1602582,1.86,-1.21,-2.43,11.66,556.34,-85.39
1777398964292,1602592,2.18,-1.55,-3.30,7.87,313.35,-34.79
1777398964312,1602612,1.99,-0.44,-3.16,-191.83,-415.71,-39.49
1777398964332,1602632,-0.14,0.91,-0.65,-95.58,-544.49,-26.31
1777398964352,1602652,-1.63,0.80,1.71,46.08,-433.84,23.99
1777398964372,1602672,-2.32,0.33,3.36,97.66,-250.55,25.94
1777398964382,1602682,-2.46,0.20,3.75,97.23,-114.93,19.41
1777398964392,1602692,-2.47,0.16,3.68,71.47,31.74,5.98
1777398964402,1602702,-2.40,0.23,3.31,46.08,171.45,-13.73
1777398964412,1602712,-1.96,0.35,2.75,33.20,295.35,-38.15
1777398964422,1602722,-1.26,0.30,1.83,24.05,402.40,-61.34
1777398964432,1602732,-0.37,-0.01,0.48,-18.74,468.57,-92.53
1777398964442,1602742,0.76,-0.27,-1.19,-122.80,441.89,-135.56
1777398964452,1602752,1.74,-0.86,-2.74,-242.61,319.46,-168.03
1777398964462,1602762,2.36,-0.64,-3.99,-313.23,105.77,-175.29
1777398964472,1602772,2.16,-0.14,-4.00,-338.56,-178.04,-162.78
1777398964482,1602782,1.66,0.38,-3.97,-291.75,-433.96,-158.14
1777398964492,1602792,1.26,0.67,-2.84,-160.10,-622.01,-161.13
1777398964502,1602802,0.84,0.82,-1.50,-40.71,-745.85,-160.83
1777398964512,1602812,0.51,0.71,-0.13,30.03,-807.92,-171.33
1777398964522,1602822,0.34,0.49,1.26,76.35,-821.29,-190.73
1777398964532,1602832,0.18,0.09,2.46,82.34,-807.43,-204.16
1777398964543,1602842,0.12,-0.53,3.50,74.34,-760.25,-198.18
1777398964552,1602852,0.12,-1.20,4.00,116.52,-633.48,-147.95
1777398964562,1602862,-0.02,-1.53,4.00,177.73,-407.71,-43.64
1777398964572,1602872,-0.21,-1.62,4.00,208.98,-138.18,69.64
1777398964582,1602882,-0.24,-1.55,4.00,202.82,100.04,151.25
1777398964592,1602892,-0.54,-1.19,4.00,162.78,267.52,210.63
1777398964602,1602902,-0.83,-0.62,3.92,112.55,380.13,255.37
1777398964612,1602912,-0.95,0.00,3.03,96.13,507.45,276.98
1777398964622,1602922,-0.62,0.89,2.24,124.21,683.96,261.84
1777398964632,1602932,0.24,1.30,1.35,216.74,854.61,242.00
1777398964652,1602952,1.57,-0.19,-0.85,559.63,915.83,43.58
1777398964672,1602972,2.49,-0.88,-3.75,-110.17,90.70,-191.65
1777398964692,1602992,1.30,-0.16,-2.68,-301.09,-449.65,-223.51
1777398964712,1603012,0.28,-0.17,-1.09,-166.56,-590.76,-156.62
1777398964722,1603022,-0.08,0.05,-0.14,-120.73,-622.31,-122.92
1777398964732,1603032,-0.39,0.19,0.83,-116.58,-648.38,-112.06
1777398964742,1603042,-0.49,0.15,1.70,-125.85,-667.85,-124.94
1777398964752,1603052,-0.67,-0.00,2.50,-126.22,-657.10,-142.64
1777398964762,1603062,-0.65,-0.48,3.16,-95.34,-588.81,-135.74
1777398964772,1603072,-0.79,-0.74,3.85,2.75,-402.65,-87.89
1777398964782,1603082,-1.04,-0.88,4.00,113.40,-122.68,-14.40
1777398964792,1603092,-1.09,-0.90,4.00,156.25,152.53,34.55
1777398964802,1603102,-0.93,-0.80,3.93,122.62,341.19,50.29
1777398964812,1603112,-0.93,-0.48,3.26,58.41,439.33,61.65
1777398964822,1603122,-0.85,-0.04,2.37,3.23,481.08,81.18
1777398964832,1603132,-0.67,0.33,1.37,14.65,540.22,106.99
1777398964842,1603142,-0.10,0.22,0.32,93.57,638.24,126.40
1777398964852,1603152,0.58,-0.06,-0.78,193.73,717.41,125.85
1777398964862,1603162,1.43,-0.48,-2.21,214.54,664.25,102.84
1777398964872,1603172,1.82,-0.67,-3.52,93.32,420.59,59.75
1777398964882,1603182,1.73,-0.27,-4.00,-119.45,38.45,-12.88
1777398964892,1603192,1.36,0.30,-3.78,-286.87,-317.02,-102.54
1777398964902,1603202,0.88,0.65,-2.93,-309.14,-536.74,-170.96
1777398964912,1603212,0.53,0.81,-1.91,-217.83,-625.00,-203.31
1777398964922,1603222,0.23,0.62,-0.85,-101.14,-653.63,-205.63
1777398964932,1603232,0.02,0.51,0.27,-11.96,-668.40,-198.30
1777398964942,1603242,-0.11,0.28,1.39,33.63,-682.80,-194.95
1777398964952,1603252,0.04,-0.06,2.53,53.53,-682.68,-198.61
1777398964962,1603262,0.09,-0.42,3.61,61.58,-644.47,-184.57
1777398964972,1603272,0.06,-1.04,4.00,53.89,-536.19,-123.11
1777398964982,1603282,0.11,-1.23,4.00,83.44,-325.74,52.92
1777398965002,1603302,0.10,-1.09,4.00,50.23,282.53,111.69
1777398965022,1603322,-0.42,-0.01,2.90,-30.33,462.04,144.41
1777398965042,1603342,-0.03,0.72,0.68,24.29,681.70,163.64
1777398965063,1603362,1.34,0.35,-2.44,206.91,759.22,93.75
1777398965072,1603372,1.76,0.03,-3.99,164.49,557.07,17.46
1777398965082,1603382,1.67,0.12,-4.00,0.06,204.65,-57.62
1777398965092,1603392,1.30,0.41,-4.00,-184.39,-161.99,-122.44
1777398965102,1603402,0.85,0.69,-3.99,-250.12,-428.04,-168.21
1777398965112,1603412,0.46,0.80,-3.00,-164.18,-564.88,-170.10
1777398965122,1603422,0.17,0.72,-1.71,-6.71,-609.99,-135.68
1777398965132,1603432,0.00,0.62,-0.23,139.04,-591.00,-91.31
1777398965142,1603442,0.01,0.50,1.29,207.58,-549.13,-53.83
1777398965152,1603452,0.06,0.25,2.62,173.52,-522.77,-32.47
1777398965162,1603462,0.13,-0.17,3.75,117.61,-501.53,-28.38
1777398965172,1603472,0.17,-0.62,4.00,88.01,-448.61,-21.61
1777398965182,1603482,0.20,-0.76,4.00,51.39,-337.83,-4.09
1777398965192,1603492,0.16,-0.92,4.00,9.52,-173.46,23.62
1777398965202,1603502,-0.01,-1.04,4.00,19.17,23.62,60.91
1777398965215,1603512,-0.18,-0.86,4.00,62.13,208.07,101.93
1777398965222,1603522,-0.35,-0.47,4.00,95.95,368.47,136.05
1777398965232,1603532,-0.43,0.08,3.35,142.15,521.06,158.02
1777398965242,1603542,-0.31,0.50,2.57,217.41,676.70,166.93
1777398965252,1603552,0.12,0.67,1.80,329.10,824.52,162.96
1777398965262,1603562,0.71,0.61,1.00,468.93,937.38,141.05
1777398965272,1603572,1.19,0.16,0.26,606.69,981.45,91.31
1777398965282,1603582,1.53,-0.50,-0.32,699.58,954.59,9.22
1777398965292,1603592,2.09,-1.66,-1.39,674.74,845.40,-84.66
1777398965302,1603602,2.55,-2.19,-2.35,418.40,606.02,-159.30
1777398965312,1603612,2.35,-2.36,-2.72,12.39,250.79,-168.09
1777398965322,1603622,1.92,-1.65,-2.55,-325.68,-101.68,-154.72
1777398965332,1603632,1.34,-0.67,-2.30,-545.72,-430.36,-170.29
1777398965352,1603652,0.15,0.37,-1.44,-581.12,-523.50,-195.98
1777398965372,1603672,-0.91,0.33,0.89,-608.34,-682.80,-346.50
1777398965392,1603692,-0.71,-0.33,1.77,-643.25,-703.92,-512.27
1777398965402,1603702,-0.89,-0.40,1.47,-654.97,-646.55,-550.96
1777398965412,1603712,-0.81,-0.90,0.46,-562.93,-543.21,-521.06
1777398965422,1603722,-0.22,-1.62,1.28,-142.82,-301.21,-368.53
1777398965432,1603732,-0.43,-2.15,1.98,392.21,13.92,-89.60
1777398965442,1603742,-0.80,-2.13,2.80,648.99,320.68,198.85
1777398965452,1603752,-1.20,-1.52,2.72,613.10,511.84,371.28
1777398965462,1603762,-1.07,-0.91,2.11,526.37,558.23,436.10
1777398965472,1603772,-1.14,-0.33,1.51,517.82,542.85,485.53
1777398965482,1603782,-0.83,0.20,0.98,576.72,506.90,540.10
1777398965492,1603792,-0.56,0.62,0.63,682.98,502.20,561.77
1777398965502,1603802,-0.06,0.41,0.26,802.19,518.68,523.32
1777398965512,1603812,-0.18,0.06,-0.16,812.68,515.44,401.25
1777398965522,1603822,-0.32,-0.82,-0.32,545.90,406.86,180.11
1777398965532,1603832,-0.10,-0.49,-0.34,14.22,187.44,-112.73
1777398965542,1603842,-0.08,0.58,-0.57,-598.45,-49.13,-346.19
1777398965552,1603852,-0.46,0.87,-1.12,-966.86,-191.71,-439.70
1777398965562,1603862,-0.51,0.91,-1.15,-976.32,-212.52,-454.65
1777398965572,1603872,-0.49,0.58,-0.80,-792.54,-204.16,-433.35
1777398965582,1603882,-0.54,0.31,-0.43,-610.96,-228.94,-383.42
1777398965592,1603892,-0.96,0.21,-0.17,-520.08,-272.64,-330.38
1777398965602,1603902,-1.15,0.19,-0.02,-458.07,-303.22,-275.76
1777398965612,1603912,-1.14,0.04,0.28,-266.66,-274.90,-182.19
1777398965622,1603922,-1.01,-0.19,0.81,60.49,-179.20,-26.98
1777398965632,1603932,-1.14,-0.26,1.18,405.40,-35.71,167.91
1777398965642,1603942,-1.16,0.06,1.36,663.15,107.67,327.88
1777398965652,1603952,-1.11,0.45,1.34,794.19,204.28,418.95
1777398965662,1603962,-1.13,0.64,1.15,862.24,251.34,450.68
1777398965672,1603972,-0.86,0.72,0.76,903.26,243.16,383.73
1777398965692,1603992,-0.68,-0.45,0.09,363.53,82.70,132.93
1777398965712,1604012,-1.01,0.59,0.19,-756.35,-77.27,-247.01
1777398965732,1604032,-0.53,0.85,-0.31,-841.55,-84.11,-299.07
1777398965752,1604052,-0.81,0.64,-0.09,-485.41,-123.84,-246.03
1777398965762,1604062,-0.97,0.82,-0.11,-393.98,-160.58,-210.57
1777398965772,1604072,-0.97,0.81,0.05,-188.54,-156.01,-134.95
1777398965782,1604082,-1.12,0.63,0.64,184.02,-83.68,-15.01
1777398965792,1604092,-1.20,0.62,1.32,549.80,30.76,116.09
1777398965802,1604102,-1.38,0.70,1.70,751.28,159.00,229.31
1777398965813,1604112,-1.40,0.91,1.75,774.60,255.74,286.32
1777398965822,1604122,-1.27,0.70,1.39,717.16,291.20,286.93
1777398965832,1604132,-0.93,0.44,0.89,632.26,264.71,234.25
1777398965842,1604142,-0.68,0.10,0.32,463.01,210.39,142.33
1777398965852,1604152,-0.66,-0.08,-0.04,197.94,138.85,20.02
1777398965862,1604162,-0.53,-0.07,-0.24,-86.36,62.38,-102.17
1777398965872,1604172,-0.51,0.20,-0.52,-324.40,2.20,-188.29
1777398965882,1604182,-0.41,0.14,-0.66,-470.09,-37.84,-222.35
1777398965892,1604192,-0.43,0.13,-0.60,-497.99,-53.04,-216.92
1777398965902,1604202,-0.58,0.25,-0.44,-501.16,-76.66,-194.40
1777398965912,1604212,-0.85,0.75,-0.29,-515.50,-105.04,-175.54
1777398965922,1604222,-1.02,1.08,-0.37,-482.36,-120.06,-156.49
1777398965932,1604232,-1.00,1.02,-0.04,-297.00,-86.67,-116.39
1777398965942,1604242,-1.04,0.84,0.65,19.41,-6.10,-46.69
1777398965952,1604252,-1.07,0.80,1.06,321.41,84.90,43.46
1777398965962,1604262,-1.30,0.72,1.22,471.37,148.93,124.27
1777398965972,1604272,-1.09,0.35,1.15,501.83,179.44,152.65
1777398965982,1604282,-0.99,0.05,0.80,450.87,200.13,127.62
1777398965992,1604292,-0.66,0.11,0.07,232.12,171.33,44.19
1777398966002,1604302,-0.62,0.14,-0.68,-116.03,76.90,-78.00
1777398966012,1604312,-0.33,0.60,-1.70,-437.62,-44.68,-197.63
1777398966022,1604322,-0.14,0.54,-2.30,-580.44,-244.57,-267.88
1777398966042,1604342,0.04,-0.02,-1.74,-305.85,-432.56,-221.19
1777398966062,1604362,-0.55,0.20,1.16,-314.76,-514.34,-103.52
1777398966082,1604382,-1.08,0.35,3.13,138.85,-196.35,27.28
1777398966092,1604392,-1.38,0.12,3.52,422.18,22.22,110.11
1777398966102,1604402,-1.55,0.25,3.57,570.80,173.77,170.78
1777398966112,1604412,-1.57,0.58,3.22,602.66,257.57,199.95
1777398966122,1604422,-1.48,0.87,2.57,595.76,307.80,196.41
1777398966132,1604432,-1.42,0.81,1.72,589.66,351.01,161.01
1777398966143,1604442,-0.75,0.22,0.48,530.40,343.75,82.89
1777398966152,1604452,-0.14,-0.35,-0.70,355.22,260.44,-20.26
1777398966162,1604462,0.16,-0.65,-1.53,33.63,132.39,-119.45
1777398966172,1604472,0.37,-0.73,-2.09,-297.06,1.04,-196.53
1777398966182,1604482,0.37,-0.39,-2.39,-493.90,-103.82,-215.39
1777398966192,1604492,0.25,-0.31,-2.05,-536.56,-186.22,-177.49
1777398966202,1604502,0.01,-0.20,-1.32,-450.07,-245.00,-112.92
1777398966212,1604512,-0.34,0.30,-0.65,-358.09,-292.24,-51.57
1777398966222,1604522,-0.61,0.40,0.26,-254.82,-309.94,-4.64
1777398966232,1604532,-0.92,1.05,1.14,-48.58,-268.19,25.82
1777398966242,1604542,-1.12,1.12,2.03,177.67,-172.55,63.29
1777398966252,1604552,-1.21,1.13,2.64,385.68,-61.10,106.02
1777398966262,1604562,-1.46,1.35,2.83,529.48,47.79,150.21
1777398966272,1604572,-1.57,1.58,2.61,583.25,128.11,160.89
1777398966282,1604582,-1.44,1.82,2.06,605.22,180.60,130.74
1777398966292,1604592,-1.05,1.20,1.43,631.96,216.80,82.70
1777398966302,1604602,-1.10,-0.46,0.54,658.26,253.91,10.80
1777398966312,1604612,-0.20,-0.80,-0.19,505.37,241.15,-94.54
1777398966322,1604622,0.08,-1.64,-0.94,111.63,141.48,-167.97
1777398966332,1604632,0.34,-1.65,-1.40,-282.04,13.67,-191.89
1777398966342,1604642,0.26,-1.14,-1.78,-522.22,-68.36,-169.80
1777398966352,1604652,0.25,-0.82,-1.73,-570.74,-117.13,-116.33
1777398966362,1604662,0.02,-0.45,-1.07,-468.08,-147.03,30.64
1777398966382,1604682,-0.69,0.48,0.49,-313.23,-227.36,41.93
1777398966402,1604702,-1.38,1.55,2.08,-123.72,-137.08,5.86
1777398966422,1604722,-1.30,1.39,2.35,219.06,89.78,67.32
1777398966443,1604742,-1.04,-0.04,0.85,323.36,203.25,70.98
1777398966453,1604752,-0.43,-0.39,-0.40,173.58,167.30,0.73
1777398966462,1604762,-0.16,-0.46,-1.41,-114.62,68.91,-68.18
1777398966472,1604772,0.00,-0.08,-2.12,-430.73,-58.84,-111.63
1777398966482,1604782,0.04,0.03,-2.19,-625.24,-183.59,-126.59
1777398966492,1604792,-0.02,0.03,-1.59,-621.46,-271.73,-106.51
1777398966502,1604802,-0.21,0.22,-0.54,-512.88,-318.97,-70.01
1777398966512,1604812,-0.51,0.24,0.55,-410.16,-329.83,-47.18
1777398966522,1604822,-0.78,0.20,1.76,-348.69,-308.11,-50.05
1777398966532,1604832,-1.03,0.28,2.52,-314.88,-255.43,-55.66
1777398966542,1604842,-1.22,0.16,2.85,-252.20,-178.83,-50.17
1777398966552,1604852,-1.03,0.28,3.03,-31.86,-69.76,-26.25
1777398966562,1604862,-0.93,0.48,3.33,315.92,78.86,50.42
1777398966572,1604872,-1.05,0.74,3.42,634.95,230.90,155.76
1777398966582,1604882,-1.14,1.28,3.16,844.91,353.45,224.67
1777398966592,1604892,-1.15,1.53,2.47,956.30,428.34,227.78
1777398966602,1604902,-1.02,0.66,1.28,1027.77,455.08,162.23
1777398966612,1604912,-0.28,-0.73,-0.22,1023.68,424.32,46.33
1777398966622,1604922,0.43,-1.92,-1.13,836.73,324.28,-54.87
1777398966632,1604932,0.71,-2.78,-1.70,433.96,162.96,-124.94
1777398966642,1604942,0.72,-3.04,-1.62,-27.22,6.16,-164.00
1777398966652,1604952,0.59,-2.32,-1.63,-403.32,-92.83,-138.37
1777398966662,1604962,0.37,-1.06,-1.82,-643.80,-153.56,-72.02
1777398966672,1604972,0.15,-0.25,-1.43,-676.88,-209.41,-16.78
1777398966682,1604982,-0.24,0.32,-0.27,-565.67,-258.30,3.54
1777398966692,1604992,-0.67,0.70,1.02,-513.43,-296.75,-24.11
1777398966702,1605002,-1.06,0.94,2.18,-546.51,-312.87,-79.53
1777398966712,1605012,-1.41,0.84,2.93,-579.16,-237.79,-151.18
1777398966732,1605032,-1.77,1.19,2.84,-344.54,-80.44,-123.60
1777398966752,1605052,-0.77,0.84,1.83,471.01,209.84,100.65
1777398966772,1605072,-1.13,1.10,1.44,828.92,368.41,228.21
1777398966782,1605082,-0.79,0.59,0.73,876.10,341.31,191.65
1777398966792,1605092,-0.48,-0.63,-0.15,890.38,304.63,117.86
1777398966802,1605102,-0.35,-1.73,-0.79,807.01,281.31,8.36
1777398966812,1605112,0.20,-2.10,-0.91,469.79,201.05,-117.55
1777398966822,1605122,0.41,-1.88,-1.30,-83.98,26.25,-210.57
1777398966832,1605132,0.26,-1.07,-1.43,-538.82,-129.03,-235.47
1777398966842,1605142,0.07,-0.65,-1.53,-761.72,-241.70,-198.91
1777398966852,1605152,-0.04,-0.25,-1.09,-745.48,-304.08,-154.36
1777398966862,1605162,-0.22,0.23,-0.32,-607.54,-341.19,-112.37
1777398966872,1605172,-0.53,0.57,0.52,-482.60,-362.92,-79.53
1777398966882,1605182,-1.03,0.73,1.42,-399.48,-367.13,-67.02
1777398966892,1605192,-1.23,1.07,2.17,-290.89,-340.03,-66.22
1777398966902,1605202,-1.19,0.98,2.68,-102.29,-247.07,-33.94
1777398966912,1605212,-1.40,0.97,3.21,133.06,-83.86,36.50
1777398966922,1605222,-1.59,1.03,3.45,331.97,91.86,105.16
1777398966932,1605232,-1.57,1.20,3.30,448.85,229.98,138.55
1777398966942,1605242,-1.33,1.11,2.68,483.64,307.56,127.01
1777398966952,1605252,-1.02,0.55,1.86,476.20,347.29,79.41
1777398966962,1605262,-0.64,-0.25,0.33,389.77,348.02,-2.26
1777398966972,1605272,0.14,-0.42,-1.24,117.74,261.66,-115.30
1777398966982,1605282,0.43,-0.55,-2.42,-250.06,102.29,-194.21
1777398966992,1605292,0.37,-0.25,-3.06,-530.94,-59.14,-226.62
1777398967002,1605302,0.21,-0.09,-3.06,-665.41,-190.67,-231.75
1777398967012,1605312,0.16,0.03,-2.53,-626.46,-294.31,-214.78
1777398967022,1605322,0.03,0.28,-1.67,-483.64,-383.97,-189.39
1777398967032,1605332,-0.14,0.38,-0.47,-337.40,-434.39,-175.66
1777398967042,1605342,-0.28,0.12,0.89,-234.01,-430.73,-183.59
1777398967052,1605352,-0.49,-0.14,1.98,-188.48,-389.53,-137.51
1777398967072,1605372,-0.83,-0.46,3.18,80.51,-61.22,13.98
1777398967092,1605392,-1.03,0.01,3.38,397.28,290.71,174.93
1777398967112,1605412,-1.09,0.48,2.67,486.08,440.98,209.78
1777398967132,1605432,0.19,-0.34,-1.39,427.80,370.73,59.45
1777398967142,1605442,0.72,-0.27,-2.98,184.39,269.59,-70.37
1777398967152,1605452,0.68,-0.26,-3.83,-100.71,117.74,-155.58
1777398967162,1605462,0.58,0.18,-4.00,-301.33,-54.08,-191.35
1777398967173,1605472,0.30,0.52,-3.42,-336.67,-202.94,-195.07
1777398967182,1605482,0.22,0.66,-2.35,-221.74,-304.57,-181.40
1777398967192,1605492,0.08,0.43,-0.89,-94.54,-365.11,-170.29
1777398967202,1605502,-0.15,0.16,0.83,-32.84,-384.22,-158.14
1777398967212,1605512,-0.61,-0.11,2.56,-46.88,-355.35,-137.76
1777398967222,1605522,-1.03,-0.30,3.70,-71.47,-287.60,-128.66
1777398967232,1605532,-1.19,-0.51,4.00,-49.07,-192.99,-113.22
1777398967242,1605542,-1.27,-0.74,4.00,3.54,-79.28,-75.56
1777398967252,1605552,-1.29,-0.84,4.00,57.50,49.07,-26.18
1777398967262,1605562,-1.29,-0.60,4.00,101.01,183.11,16.91
1777398967272,1605572,-1.18,-0.28,3.55,132.87,305.48,43.27
1777398967282,1605582,-1.02,0.16,2.51,179.44,410.83,47.85
1777398967292,1605592,-0.60,0.46,1.40,240.91,502.26,43.33
1777398967302,1605602,0.05,0.16,-0.28,303.04,559.81,23.80
1777398967312,1605612,0.86,-0.01,-1.69,292.66,539.61,-26.18
1777398967322,1605622,1.45,-0.21,-3.26,133.42,390.08,-83.37
1777398967332,1605632,1.39,-0.05,-4.00,-114.56,144.41,-136.35
1777398967342,1605642,1.23,0.39,-4.00,-305.91,-123.23,-174.07
1777398967352,1605652,1.02,0.68,-4.00,-307.56,-325.13,-182.80
1777398967362,1605662,0.63,0.67,-2.87,-170.72,-441.16,-168.15
1777398967372,1605672,0.41,0.51,-1.13,-67.69,-498.11,-177.55
