host_time_ms,arduino_time_ms,ax,ay,az,gx,gy,gz
1777399199970,1833743,-0.91,-0.34,0.17,-19.53,-50.96,-20.57
1777399199971,1833753,-0.89,-0.35,0.13,-13.73,-40.47,-23.19
1777399199971,1833763,-0.87,-0.37,0.11,-5.31,-21.42,-20.45
1777399199971,1833773,-0.85,-0.41,0.15,1.89,0.37,-14.53
1777399199972,1833793,-0.83,-0.45,0.27,0.73,26.06,-4.70
1777399199972,1833813,-0.85,-0.43,0.26,-15.93,6.65,-11.60
1777399199972,1833833,-0.84,-0.42,0.15,-20.45,-7.75,-19.78
1777399199972,1833853,-0.85,-0.42,0.11,-13.24,-2.87,-16.60
1777399199973,1833863,-0.85,-0.42,0.12,-6.59,2.75,-11.90
1777399199973,1833873,-0.86,-0.42,0.15,0.85,8.61,-7.08
1777399199973,1833883,-0.86,-0.43,0.21,5.37,11.90,-4.94
1777399199973,1833893,-0.86,-0.44,0.24,6.04,10.25,-6.35
1777399199973,1833903,-0.85,-0.44,0.26,3.48,5.00,-10.01
1777399199974,1833913,-0.85,-0.44,0.26,-0.61,-0.92,-14.83
1777399199974,1833923,-0.85,-0.45,0.23,-4.09,-5.49,-18.55
1777399199975,1833933,-0.83,-0.45,0.20,-5.62,-7.14,-19.10
1777399199975,1833943,-0.84,-0.44,0.18,-5.49,-5.07,-16.85
1777399199975,1833953,-0.84,-0.45,0.18,-4.27,-1.28,-12.15
1777399199976,1833963,-0.84,-0.46,0.19,-1.46,2.26,-7.51
1777399199976,1833973,-0.85,-0.45,0.20,1.22,3.36,-4.76
1777399199976,1833983,-0.85,-0.46,0.21,2.20,1.59,-3.60
1777399199977,1833993,-0.86,-0.45,0.22,1.65,-0.85,-4.76
1777399199977,1834003,-0.86,-0.45,0.22,-0.31,-2.87,-7.87
1777399199977,1834013,-0.84,-0.45,0.21,-2.14,-4.76,-11.29
1777399199977,1834023,-0.83,-0.45,0.21,-3.91,-5.86,-13.98
1777399199978,1834033,-0.82,-0.45,0.19,-5.25,-7.02,-14.59
1777399199978,1834043,-0.81,-0.45,0.18,-5.62,-7.69,-13.24
1777399199978,1834053,-0.81,-0.44,0.16,-4.94,-7.39,-10.74
1777399199978,1834063,-0.82,-0.43,0.15,-3.60,-5.68,-7.39
1777399199979,1834073,-0.84,-0.43,0.16,-1.65,-2.32,-5.07
1777399199979,1834083,-0.84,-0.43,0.16,0.37,1.04,-4.46
1777399199979,1834093,-0.84,-0.44,0.17,1.34,3.36,-4.39
1777399199979,1834103,-0.85,-0.45,0.18,1.53,4.09,-4.64
1777399199979,1834113,-0.84,-0.45,0.20,0.37,3.23,-5.25
1777399199980,1834123,-0.84,-0.45,0.20,-1.40,-14.47,-6.71
1777399199980,1834143,-0.84,-0.44,0.19,-3.11,-1.83,-7.57
1777399199980,1834163,-0.84,-0.45,0.20,-2.62,-1.77,-7.26
1777399199980,1834183,-0.82,-0.46,0.19,-2.32,0.98,-6.47
1777399199981,1834203,-0.81,-0.47,0.19,-3.48,3.05,-5.74
1777399199981,1834213,-0.81,-0.47,0.18,-3.85,2.14,-5.19
1777399199981,1834223,-0.82,-0.46,0.19,-4.33,0.85,-4.76
1777399199981,1834233,-0.84,-0.46,0.19,-4.76,-0.12,-4.39
1777399199981,1834243,-0.85,-0.45,0.19,-4.15,-0.06,-3.85
1777399199982,1834253,-0.86,-0.45,0.18,-3.72,0.61,-3.97
1777399199982,1834263,-0.87,-0.46,0.18,-5.07,1.59,-5.19
1777399199982,1834273,-0.88,-0.46,0.17,-7.20,1.59,-6.47
1777399199982,1834283,-0.88,-0.45,0.14,-8.18,0.92,-6.90
1777399199983,1834293,-0.87,-0.45,0.13,-7.39,0.85,-6.29
1777399199983,1834303,-0.87,-0.46,0.13,-5.25,1.04,-5.49
1777399199983,1834313,-0.86,-0.47,0.14,-3.05,0.92,-5.19
1777399199983,1834323,-0.85,-0.47,0.15,-1.71,0.31,-5.37
1777399199983,1834333,-0.84,-0.47,0.16,-1.22,0.00,-5.43
1777399199984,1834343,-0.84,-0.47,0.16,-1.40,0.24,-5.86
1777399199984,1834353,-0.83,-0.48,0.16,-2.69,0.98,-6.77
1777399199984,1834363,-0.83,-0.49,0.14,-3.85,1.65,-6.90
1777399199984,1834373,-0.82,-0.49,0.14,-3.97,2.44,-6.29
1777399199984,1834383,-0.82,-0.49,0.14,-2.99,2.87,-4.88
1777399199985,1834393,-0.82,-0.49,0.14,-1.71,1.95,-3.17
1777399199985,1834403,-0.83,-0.49,0.14,-1.10,0.61,-1.22
1777399199985,1834413,-0.84,-0.49,0.15,-0.24,-0.18,0.43
1777399199985,1834423,-0.84,-0.48,0.15,1.10,0.18,1.16
1777399199985,1834433,-0.85,-0.48,0.16,1.83,1.53,0.85
1777399199986,1834443,-0.86,-0.48,0.16,0.92,2.44,-0.12
1777399199986,1834453,-0.87,-0.47,0.16,-0.98,2.50,-1.77
1777399199986,1834463,-0.88,-0.47,0.15,-2.56,1.28,-3.17
1777399199986,1834483,-0.87,-0.47,0.11,-0.43,2.01,-4.88
1777399199986,1834503,-0.86,-0.48,0.10,3.72,7.32,-2.56
1777399199987,1834523,-0.85,-0.48,0.14,3.30,8.24,-2.75
1777399199987,1834543,-0.84,-0.48,0.13,1.40,1.89,-4.15
1777399199987,1834553,-0.85,-0.48,0.12,-0.49,-1.10,-5.55
1777399199987,1834563,-0.86,-0.47,0.10,-1.46,-2.69,-6.23
1777399199988,1834573,-0.86,-0.47,0.09,-0.73,-1.95,-5.62
1777399199988,1834583,-0.86,-0.46,0.08,1.10,0.98,-4.39
1777399199988,1834593,-0.87,-0.46,0.09,2.81,4.94,-3.66
1777399199988,1834603,-0.86,-0.46,0.10,4.52,8.79,-2.81
1777399199989,1834613,-0.86,-0.46,0.11,5.74,11.41,-2.08
1777399199989,1834623,-0.86,-0.47,0.12,5.00,11.60,-2.56
1777399199989,1834633,-0.85,-0.48,0.12,2.87,9.28,-4.09
1777399199989,1834643,-0.84,-0.48,0.11,0.49,5.13,-5.80
1777399199989,1834653,-0.84,-0.47,0.09,-0.61,0.85,-7.45
1777399199989,1834663,-0.85,-0.47,0.09,-0.61,-1.65,-7.81
1777399199990,1834673,-0.85,-0.47,0.09,0.31,-2.20,-7.14
1777399199990,1834683,-0.86,-0.47,0.09,1.28,-1.16,-6.47
1777399199990,1834693,-0.86,-0.47,0.09,1.89,0.55,-5.98
1777399199990,1834703,-0.86,-0.47,0.09,2.44,2.62,-5.19
1777399199990,1834713,-0.86,-0.46,0.09,2.87,4.64,-4.82
1777399199991,1834723,-0.86,-0.47,0.09,3.48,6.29,-4.33
1777399199991,1834733,-0.85,-0.47,0.09,4.88,7.75,-3.48
1777399199991,1834743,-0.85,-0.47,0.11,5.86,8.67,-3.42
1777399199991,1834753,-0.85,-0.48,0.12,4.46,6.77,-4.58
1777399199991,1834763,-0.84,-0.48,0.10,2.20,2.32,-5.80
1777399199992,1834773,-0.84,-0.47,0.07,0.43,-1.89,-5.86
1777399199992,1834783,-0.84,-0.47,0.05,0.73,-3.66,-4.82
1777399199992,1834793,-0.84,-0.47,0.05,2.75,-3.17,-3.11
1777399199992,1834803,-0.85,-0.47,0.06,5.07,-2.01,-1.40
1777399199992,1834813,-0.85,-0.47,0.06,6.35,-1.65,-0.06
1777399199992,1834833,-0.86,-0.46,0.08,7.93,-4.58,2.62
1777399199993,1834853,-0.89,-0.49,0.06,9.40,-7.39,3.23
1777399199993,1834873,-0.90,-0.50,0.04,13.12,-6.47,2.93
1777399199993,1834893,-0.92,-0.50,0.02,21.42,-6.23,6.59
1777399199993,1834903,-0.97,-0.52,0.00,25.63,-8.48,9.28
1777399199993,1834913,-0.96,-0.54,-0.02,30.27,-12.76,13.55
1777399199993,1834923,-0.96,-0.52,-0.06,36.56,-18.86,18.01
1777399199994,1834933,-0.97,-0.49,-0.07,44.49,-26.25,23.93
1777399199994,1834943,-0.97,-0.45,-0.07,54.08,-35.16,31.80
1777399199994,1834953,-0.98,-0.46,-0.08,63.35,-44.37,40.59
1777399199994,1834963,-0.97,-0.47,-0.05,70.98,-52.06,46.51
1777399199994,1834973,-0.97,-0.48,-0.04,78.00,-59.02,48.10
1777399199995,1834983,-0.70,-0.23,-0.05,83.31,-66.04,50.29
1777399199995,1834993,-1.01,-0.47,-0.01,80.81,-71.72,63.96
1777399199995,1835003,-1.09,-0.49,0.05,98.82,-91.31,59.27
1777399199995,1835013,-0.96,-0.52,0.12,109.68,-117.00,47.12
1777399199995,1835023,-0.93,-0.43,0.15,113.59,-132.45,35.52
1777399199996,1835033,-0.96,-0.34,0.20,117.07,-139.34,23.32
1777399199996,1835043,-0.98,-0.31,0.34,110.96,-141.36,5.98
1777399199996,1835053,-0.98,-0.29,0.44,100.52,-140.50,-10.13
1777399199996,1835063,-1.00,-0.25,0.49,88.20,-135.62,-23.68
1777399199996,1835073,-0.98,-0.24,0.50,74.40,-126.83,-35.34
1777399199996,1835083,-0.96,-0.23,0.49,64.39,-115.97,-44.80
1777399199997,1835093,-0.92,-0.22,0.48,59.39,-106.63,-52.61
1777399199997,1835103,-0.88,-0.21,0.47,58.78,-100.95,-59.27
1777399199997,1835113,-0.81,-0.19,0.50,63.05,-97.47,-64.64
1777399199997,1835123,-0.74,-0.18,0.54,67.63,-96.62,-67.81
1777399199997,1835133,-0.67,-0.16,0.60,70.07,-98.51,-69.58
1777399199998,1835143,-0.61,-0.17,0.68,66.83,-99.91,-67.75
1777399199998,1835153,-0.58,-0.20,0.74,55.05,-98.82,-62.07
1777399199998,1835173,-0.57,-0.33,0.74,2.75,-58.23,-45.35
1777399199998,1835193,-0.58,-0.33,0.70,-14.10,-22.34,-43.09
1777399199998,1835213,-0.56,-0.30,0.68,-18.98,-9.83,-43.33
1777399199999,1835233,-0.57,-0.33,0.63,-15.99,-5.19,-41.50
1777399199999,1835243,-0.46,-0.32,0.63,-12.76,-3.42,-36.74
1777399199999,1835253,-0.42,-0.34,0.52,-4.09,-0.98,-25.39
1777399199999,1835263,-0.51,-0.34,0.59,6.84,3.11,-11.96
1777399199999,1835273,-0.51,-0.40,0.57,9.03,4.03,-6.29
1777399199999,1835283,-0.51,-0.37,0.58,11.05,4.94,-4.64
1777399200000,1835293,-0.52,-0.36,0.58,8.97,5.74,-3.78
1777399200000,1835303,-0.54,-0.38,0.55,3.72,3.48,-4.03
1777399200000,1835313,-0.52,-0.34,0.57,-1.22,-2.38,-4.52
1777399200000,1835323,-0.52,-0.30,0.58,-6.29,-8.97,-5.13
1777399200000,1835333,-0.51,-0.28,0.57,-11.60,-15.50,-5.43
1777399200000,1835343,-0.49,-0.27,0.58,-14.34,-19.96,-3.36
1777399200001,1835353,-0.50,-0.27,0.57,-12.33,-21.91,1.65
1777399200001,1835363,-0.51,-0.26,0.58,-6.47,-20.63,7.75
1777399200001,1835373,-0.53,-0.25,0.62,-0.79,-17.09,13.00
1777399200001,1835383,-0.55,-0.25,0.67,3.54,-13.12,16.05
1777399200001,1835393,-0.59,-0.24,0.72,6.90,-6.84,15.50
1777399200001,1835403,-0.61,-0.25,0.74,6.90,2.20,11.66
1777399200002,1835413,-0.64,-0.26,0.77,1.53,11.54,5.13
1777399200002,1835423,-0.67,-0.27,0.78,-7.39,17.27,-2.32
1777399200002,1835433,-0.65,-0.28,0.75,-13.31,19.78,-6.23
1777399200002,1835443,-0.59,-0.29,0.68,-14.71,22.77,-3.85
1777399200002,1835453,-0.58,-0.31,0.63,-14.59,29.42,2.99
1777399200002,1835463,-0.61,-0.33,0.60,-13.79,37.78,10.86
1777399200003,1835473,-0.67,-0.35,0.59,-9.58,45.47,18.13
1777399200003,1835483,-0.70,-0.36,0.57,-2.99,52.67,23.01
1777399200003,1835493,-0.72,-0.36,0.56,0.43,62.44,24.35
1777399200003,1835503,-0.75,-0.37,0.58,-0.37,75.74,20.14
1777399200003,1835523,-0.81,-0.34,0.61,-18.49,101.62,17.76
1777399200003,1835543,-0.86,-0.32,0.54,-35.64,97.17,18.62
1777399200004,1835563,-0.88,-0.31,0.43,-40.47,94.30,22.95
1777399200004,1835583,-0.90,-0.34,0.39,-35.34,97.29,23.38
1777399200004,1835593,-0.89,-0.35,0.39,-36.01,99.49,21.30
1777399200004,1835603,-0.90,-0.35,0.37,-38.70,99.91,17.64
1777399200004,1835613,-0.91,-0.34,0.37,-43.21,96.86,12.94
1777399200004,1835623,-0.90,-0.35,0.34,-48.65,88.99,8.67
1777399200005,1835633,-0.90,-0.35,0.31,-52.31,78.19,5.68
1777399200005,1835643,-0.88,-0.32,0.26,-51.88,64.51,4.03
1777399200005,1835653,-0.90,-0.33,0.19,-49.80,51.70,4.09
1777399200005,1835663,-0.91,-0.39,0.16,-48.16,46.02,6.29
1777399200005,1835673,-0.91,-0.38,0.14,-41.32,43.58,6.77
1777399200005,1835683,-0.91,-0.39,0.09,-31.86,43.33,7.39
1777399200006,1835693,-0.90,-0.41,0.10,-24.84,45.90,8.30
1777399200006,1835703,-0.89,-0.42,0.11,-20.45,48.10,7.39
1777399200006,1835713,-0.89,-0.41,0.12,-19.35,47.00,5.31
1777399200006,1835723,-0.89,-0.40,0.12,-20.94,42.30,3.11
1777399200006,1835733,-0.90,-0.39,0.11,-23.25,35.89,1.77
1777399200006,1835743,-0.92,-0.39,0.10,-24.41,29.48,0.85
1777399200007,1835753,-0.92,-0.38,0.09,-23.86,24.11,-0.31
1777399200007,1835763,-0.93,-0.36,0.10,-21.55,19.53,-0.85
1777399200007,1835773,-0.93,-0.37,0.10,-17.88,14.77,-0.31
1777399200007,1835783,-0.93,-0.38,0.09,-14.40,9.58,0.61
1777399200007,1835793,-0.94,-0.38,0.08,-12.21,4.39,2.01
1777399200007,1835803,-0.94,-0.38,0.08,-10.99,-0.43,3.97
1777399200007,1835813,-0.95,-0.37,0.09,-10.01,-4.27,5.07
1777399200008,1835823,-0.96,-0.36,0.09,-9.28,-6.96,4.39
1777399200008,1835833,-0.96,-0.35,0.10,-8.73,-7.93,3.05
1777399200008,1835843,-0.96,-0.34,0.11,-8.36,-8.24,1.77
1777399200008,1835863,-0.95,-0.33,0.12,-5.74,-9.28,-1.89
1777399200008,1835883,-0.94,-0.33,0.14,-4.70,-10.01,-2.93
1777399200008,1835903,-0.93,-0.35,0.12,-4.58,-9.77,-4.52
1777399200009,1835923,-0.91,-0.34,0.12,-2.38,-7.14,-2.56
1777399200009,1835933,-0.92,-0.35,0.14,-2.62,-6.41,-1.95
1777399200009,1835943,-0.91,-0.35,0.14,-3.54,-7.39,-2.26
1777399200009,1835953,-0.90,-0.35,0.12,-3.91,-9.16,-2.14
1777399200009,1835963,-0.90,-0.35,0.11,-3.66,-10.38,-1.46
1777399200009,1835973,-0.89,-0.35,0.11,-3.48,-10.80,-1.46
1777399200009,1835983,-0.89,-0.35,0.12,-3.17,-10.38,-2.26
1777399200010,1835993,-0.90,-0.35,0.12,-2.99,-9.34,-2.26
1777399200010,1836003,-0.90,-0.36,0.11,-3.23,-8.12,-1.71
1777399200010,1836013,-0.90,-0.35,0.11,-3.60,-6.77,-1.71
1777399200010,1836023,-0.91,-0.34,0.11,-3.97,-5.55,-1.89
1777399200010,1836033,-0.92,-0.35,0.10,-4.27,-5.13,-1.77
1777399200010,1836043,-0.92,-0.35,0.09,-4.21,-4.88,-1.95
1777399200010,1836053,-0.93,-0.34,0.08,-3.60,-4.58,-2.08
1777399200010,1836063,-0.93,-0.33,0.08,-1.95,-4.39,-1.59
1777399200011,1836073,-0.94,-0.32,0.09,-0.55,-3.85,-1.53
1777399200011,1836083,-0.94,-0.33,0.11,0.24,-3.48,-1.89
1777399200011,1836093,-0.93,-0.34,0.10,0.73,-3.85,-3.05
1777399200011,1836103,-0.93,-0.34,0.11,0.43,-4.39,-4.58
1777399200011,1836113,-0.92,-0.35,0.11,-0.18,-4.64,-6.29
1777399200011,1836123,-0.91,-0.35,0.10,0.18,-4.88,-7.51
1777399200011,1836133,-0.90,-0.34,0.11,0.73,-4.88,-7.69
1777399200012,1836143,-0.90,-0.35,0.12,0.98,-5.00,-6.59
1777399200012,1836153,-0.90,-0.35,0.13,0.92,-5.43,-4.82
1777399200012,1836163,-0.90,-0.35,0.13,1.10,-6.04,-3.42
1777399200012,1836173,-0.90,-0.35,0.13,1.40,-6.04,-2.56
1777399200012,1836183,-0.91,-0.35,0.13,1.40,-5.19,-2.20
1777399200012,1836193,-0.91,-0.34,0.13,1.34,-4.03,-2.01
1777399200013,1836213,-0.93,-0.34,0.14,-0.67,-1.46,-2.32
1777399200013,1836233,-0.96,-0.32,0.13,-0.49,-3.05,-3.17
1777399200013,1836253,-0.93,-0.33,0.13,0.92,-4.46,-4.33
1777399200013,1836273,-0.93,-0.32,0.13,1.46,-3.85,-4.21
1777399200013,1836283,-0.92,-0.33,0.14,1.34,-3.48,-4.33
1777399200013,1836293,-0.92,-0.33,0.14,1.53,-3.54,-4.64
1777399200013,1836303,-0.91,-0.33,0.14,0.92,-3.97,-5.25
1777399200013,1836313,-0.91,-0.34,0.14,-0.06,-4.88,-5.86
1777399200014,1836323,-0.91,-0.34,0.14,-0.06,-6.04,-5.49
1777399200014,1836333,-0.91,-0.33,0.13,0.37,-6.35,-4.70
1777399200014,1836343,-0.92,-0.33,0.13,0.12,-5.80,-4.46
1777399200014,1836353,-0.92,-0.33,0.12,0.00,-4.27,-4.46
1777399200014,1836363,-0.92,-0.33,0.11,0.31,-2.38,-4.52
1777399200019,1836373,-0.92,-0.33,0.11,0.61,-1.10,-4.27
1777399200020,1836383,-0.92,-0.33,0.12,0.85,-1.16,-3.85
1777399200020,1836393,-0.92,-0.32,0.12,1.22,-2.69,-3.60
1777399200020,1836403,-0.92,-0.32,0.12,1.40,-5.31,-3.60
1777399200020,1836413,-0.92,-0.32,0.11,1.28,-8.18,-3.97
1777399200021,1836423,-0.92,-0.32,0.10,1.71,-10.13,-4.46
1777399200021,1836433,-0.92,-0.32,0.09,2.38,-10.13,-5.00
1777399200021,1836443,-0.93,-0.33,0.11,3.11,-8.42,-5.55
1777399200021,1836453,-0.92,-0.34,0.10,3.54,-6.16,-5.80
1777399200021,1836463,-0.92,-0.34,0.12,3.66,-3.91,-6.16
1777399200023,1836473,-0.92,-0.34,0.12,3.66,-2.75,-6.04
1777399200023,1836483,-0.91,-0.33,0.13,3.23,-2.87,-5.37
1777399200023,1836493,-0.91,-0.32,0.13,3.30,-4.46,-4.76
1777399200023,1836503,-0.92,-0.32,0.13,4.21,-6.71,-3.85
1777399200023,1836513,-0.92,-0.31,0.13,4.76,-8.36,-3.30
1777399200024,1836523,-0.93,-0.32,0.13,4.82,-9.09,-3.42
1777399200024,1836533,-0.93,-0.32,0.13,4.88,-8.67,-3.72
1777399200024,1836553,-0.93,-0.33,0.14,3.85,-6.10,-5.31
1777399200024,1836573,-0.93,-0.32,0.16,3.78,-7.08,-4.82
1777399200024,1836593,-0.94,-0.32,0.16,3.30,-8.30,-5.00
1777399200024,1836613,-0.94,-0.32,0.15,3.42,-7.87,-5.07
1777399200024,1836623,-0.93,-0.32,0.16,3.91,-6.90,-5.00
1777399200024,1836633,-0.93,-0.32,0.16,3.85,-5.92,-5.13
1777399200024,1836643,-0.92,-0.33,0.17,3.60,-5.68,-5.62
1777399200025,1836653,-0.92,-0.33,0.17,2.81,-6.41,-5.98
1777399200025,1836663,-0.91,-0.32,0.18,1.28,-7.75,-6.29
1777399200025,1836673,-0.91,-0.32,0.17,0.00,-8.85,-6.53
1777399200027,1836683,-0.91,-0.32,0.16,-0.18,-8.85,-6.96
1777399200028,1836693,-0.90,-0.32,0.15,0.06,-7.93,-6.84
1777399200028,1836703,-0.89,-0.33,0.15,0.55,-6.71,-6.29
1777399200029,1836713,-0.89,-0.33,0.14,0.98,-5.62,-5.92
1777399200029,1836723,-0.88,-0.33,0.14,1.16,-5.19,-5.68
1777399200030,1836733,-0.88,-0.33,0.14,1.16,-5.49,-5.25
1777399200030,1836743,-0.88,-0.33,0.14,1.04,-5.98,-4.58
1777399200030,1836753,-0.88,-0.33,0.13,1.04,-6.96,-4.33
1777399200030,1836763,-0.89,-0.33,0.13,1.22,-8.00,-4.03
1777399200030,1836773,-0.89,-0.33,0.14,1.34,-8.85,-3.54
1777399200030,1836783,-0.90,-0.32,0.15,1.40,-9.28,-3.42
1777399200030,1836793,-0.90,-0.31,0.16,1.28,-9.70,-3.66
1777399200031,1836803,-0.91,-0.31,0.18,0.43,-9.70,-3.97
1777399200031,1836813,-0.91,-0.31,0.17,-0.49,-9.70,-4.21
1777399200031,1836823,-0.91,-0.31,0.18,-1.59,-8.36,-4.46
1777399200031,1836833,-0.91,-0.31,0.17,-2.14,-6.23,-5.07
1777399200031,1836843,-0.90,-0.30,0.17,-2.26,-3.66,-5.00
1777399200031,1836853,-0.90,-0.31,0.18,-1.83,-1.59,-4.03
1777399200031,1836863,-0.89,-0.31,0.18,-1.46,-0.79,-3.30
1777399200031,1836873,-0.89,-0.33,0.18,-1.71,-1.16,-2.75
1777399200031,1836883,-0.89,-0.34,0.17,-2.69,-2.32,-2.26
1777399200032,1836903,-0.89,-0.35,0.15,-3.54,-4.64,-1.77
1777399200032,1836923,-0.89,-0.35,0.11,-1.83,-4.03,-0.49
1777399200032,1836943,-0.90,-0.36,0.10,0.12,-2.26,-0.37
1777399200032,1836963,-0.91,-0.36,0.08,0.31,-0.55,-1.83
1777399200032,1836973,-0.90,-0.36,0.07,0.79,-0.61,-1.95
1777399200032,1836983,-0.91,-0.36,0.06,1.71,-0.79,-1.89
1777399200032,1836993,-0.92,-0.35,0.06,2.93,-1.10,-1.59
1777399200032,1837003,-0.92,-0.35,0.06,4.46,-1.71,-1.59
1777399200032,1837013,-0.93,-0.35,0.06,6.04,-2.69,-1.83
1777399200033,1837023,-0.93,-0.35,0.06,6.77,-3.54,-2.69
1777399200033,1837033,-0.93,-0.35,0.07,6.96,-4.03,-3.54
1777399200033,1837043,-0.93,-0.34,0.07,7.32,-4.64,-4.03
1777399200033,1837053,-0.94,-0.34,0.09,8.18,-5.25,-3.97
1777399200033,1837063,-0.94,-0.34,0.10,8.91,-6.10,-3.48
1777399200033,1837073,-0.96,-0.33,0.11,9.52,-6.90,-3.05
1777399200033,1837083,-0.97,-0.32,0.12,9.64,-7.39,-2.93
1777399200033,1837093,-0.99,-0.30,0.13,9.58,-7.08,-3.23
1777399200033,1837103,-0.99,-0.29,0.15,9.34,-5.86,-4.27
1777399200034,1837113,-1.00,-0.28,0.16,8.79,-4.15,-6.41
1777399200034,1837123,-0.99,-0.28,0.17,8.30,-2.38,-8.24
1777399200034,1837133,-0.98,-0.28,0.17,7.45,-1.16,-9.58
1777399200034,1837143,-0.96,-0.29,0.17,6.35,-0.49,-10.68
1777399200034,1837153,-0.95,-0.29,0.18,5.55,-0.43,-11.54
1777399200034,1837163,-0.92,-0.30,0.18,5.68,-0.98,-11.72
1777399200034,1837173,-0.91,-0.31,0.18,5.98,-2.20,-11.29
1777399200034,1837183,-0.89,-0.32,0.18,5.68,-3.78,-10.56
1777399200034,1837193,-0.88,-0.33,0.18,5.19,-5.13,-9.46
1777399200035,1837203,-0.88,-0.33,0.18,4.76,-6.23,-8.06
1777399200035,1837213,-0.88,-0.34,0.17,4.46,-7.39,-6.84
1777399200035,1837223,-0.88,-0.34,0.17,3.85,-8.42,-5.74
1777399200035,1837233,-0.88,-0.33,0.16,3.11,-9.28,-3.91
1777399200035,1837253,-0.90,-0.32,0.15,2.69,-8.91,-3.23
1777399200036,1837273,-0.91,-0.31,0.17,3.54,-7.75,-3.60
1777399200036,1837293,-0.91,-0.31,0.18,1.22,-8.91,-3.85
1777399200036,1837303,-0.91,-0.30,0.18,0.00,-9.95,-4.21
1777399200036,1837313,-0.92,-0.30,0.17,-0.73,-10.80,-4.52
1777399200037,1837323,-0.91,-0.31,0.17,-1.10,-10.38,-4.33
1777399200037,1837333,-0.91,-0.31,0.16,-0.79,-9.34,-4.03
1777399200037,1837343,-0.91,-0.31,0.16,-0.43,-7.69,-3.60
1777399200037,1837353,-0.91,-0.32,0.15,-0.31,-6.29,-3.30
1777399200037,1837363,-0.90,-0.33,0.15,-0.24,-5.31,-2.99
1777399200037,1837373,-0.90,-0.33,0.15,-0.73,-5.07,-3.66
1777399200037,1837383,-0.90,-0.33,0.14,-1.16,-5.19,-4.15
1777399200038,1837393,-0.90,-0.33,0.13,-1.04,-5.62,-3.54
1777399200038,1837403,-0.91,-0.33,0.13,-0.73,-5.92,-2.93
1777399200038,1837413,-0.91,-0.33,0.14,-0.92,-5.98,-3.36
1777399200039,1837423,-0.91,-0.33,0.14,-1.22,-6.16,-4.09
1777399200039,1837433,-0.91,-0.33,0.14,-1.16,-6.16,-4.46
1777399200039,1837443,-0.91,-0.33,0.13,-0.79,-6.23,-3.91
1777399200039,1837453,-0.91,-0.33,0.14,-0.18,-6.23,-3.36
1777399200039,1837463,-0.91,-0.32,0.13,0.49,-6.04,-2.81
1777399200039,1837473,-0.92,-0.32,0.14,0.79,-5.74,-2.50
1777399200039,1837483,-0.92,-0.33,0.14,1.16,-5.74,-2.99
1777399200039,1837493,-0.92,-0.33,0.14,1.34,-6.10,-3.85
1777399200040,1837503,-0.92,-0.34,0.14,1.22,-6.53,-4.46
1777399200040,1837513,-0.92,-0.33,0.14,0.98,-6.65,-4.46
1777399200040,1837523,-0.92,-0.33,0.14,0.92,-6.65,-4.33
1777399200040,1837533,-0.92,-0.33,0.14,1.10,-6.29,-4.46
1777399200040,1837543,-0.92,-0.33,0.13,1.71,-5.49,-4.33
1777399200040,1837553,-0.92,-0.33,0.13,2.44,-4.64,-4.46
1777399200040,1837563,-0.93,-0.34,0.14,2.62,-4.33,-4.82
1777399200040,1837573,-0.93,-0.34,0.14,2.32,-5.13,-5.37
1777399200040,1837593,-0.93,-0.33,0.13,1.71,-6.77,-7.69
1777399200040,1837613,-0.94,-0.33,0.13,2.69,-7.39,-7.57
1777399200041,1837633,-0.91,-0.34,0.13,2.87,-6.47,-8.42
1777399200041,1837653,-0.90,-0.33,0.12,2.62,-7.87,-8.97
1777399200041,1837663,-0.89,-0.33,0.11,3.17,-8.18,-8.00
1777399200041,1837673,-0.90,-0.33,0.13,3.78,-7.57,-6.96
1777399200041,1837683,-0.91,-0.33,0.14,4.21,-7.08,-6.65
1777399200041,1837693,-0.91,-0.33,0.15,4.33,-7.32,-6.84
1777399200041,1837703,-0.91,-0.33,0.15,3.54,-8.00,-7.14
1777399200041,1837713,-0.91,-0.33,0.16,2.26,-8.67,-7.32
1777399200041,1837723,-0.92,-0.32,0.16,1.22,-9.16,-7.45
1777399200041,1837733,-0.93,-0.31,0.15,1.04,-9.22,-7.45
1777399200042,1837743,-0.94,-0.29,0.15,1.22,-8.30,-7.39
1777399200042,1837753,-0.94,-0.32,0.15,1.10,-6.96,-6.96
1777399200042,1837763,-0.95,-0.31,0.16,1.83,-5.92,-6.65
1777399200042,1837773,-0.95,-0.30,0.17,2.50,-5.31,-6.71
1777399200042,1837783,-0.95,-0.31,0.18,1.89,-5.25,-7.81
1777399200042,1837793,-0.95,-0.32,0.19,0.43,-5.25,-9.83
1777399200042,1837803,-0.93,-0.32,0.19,-0.85,-5.62,-11.60
1777399200042,1837813,-0.92,-0.32,0.20,-1.77,-6.23,-12.70
1777399200042,1837823,-0.91,-0.33,0.20,-2.87,-6.96,-13.49
1777399200043,1837833,-0.91,-0.33,0.19,-3.36,-7.93,-13.98
1777399200043,1837843,-0.90,-0.33,0.19,-2.56,-8.24,-12.76
1777399200043,1837853,-0.90,-0.33,0.18,-1.46,-7.57,-10.50
1777399200043,1837863,-0.90,-0.34,0.18,-0.43,-5.62,-8.36
1777399200043,1837873,-0.90,-0.34,0.19,0.12,-3.60,-7.08
1777399200043,1837883,-0.90,-0.34,0.19,-0.18,-2.62,-6.59
1777399200043,1837893,-0.90,-0.34,0.19,-1.22,-3.48,-6.71
1777399200043,1837903,-0.90,-0.34,0.19,-2.81,-5.43,-7.87
1777399200044,1837913,-0.91,-0.33,0.18,-4.03,-6.96,-9.22
1777399200044,1837923,-0.91,-0.33,0.17,-3.78,-7.45,-9.40
1777399200044,1837943,-0.90,-0.33,0.18,-1.40,-7.32,-8.24
1777399200044,1837963,-0.90,-0.34,0.17,-2.26,-8.42,-8.48
1777399200045,1837983,-0.90,-0.34,0.16,-3.60,-9.22,-9.95
1777399200045,1838003,-0.90,-0.34,0.16,-2.81,-7.45,-9.70
1777399200045,1838013,-0.90,-0.35,0.15,-2.56,-6.65,-10.31
1777399200045,1838023,-0.90,-0.35,0.15,-2.26,-6.23,-10.99
1777399200045,1838033,-0.90,-0.36,0.16,-1.89,-5.86,-11.29
1777399200045,1838043,-0.89,-0.36,0.16,-1.89,-5.98,-11.47
1777399200046,1838053,-0.89,-0.36,0.16,-2.44,-6.47,-11.60
1777399200046,1838063,-0.88,-0.37,0.16,-2.75,-7.08,-11.41
1777399200046,1838073,-0.88,-0.38,0.16,-3.11,-7.51,-11.35
1777399200046,1838083,-0.88,-0.38,0.15,-3.48,-7.81,-11.29
1777399200046,1838093,-0.88,-0.38,0.15,-3.54,-7.63,-11.35
1777399200046,1838103,-0.88,-0.38,0.15,-3.54,-6.71,-11.05
1777399200046,1838113,-0.88,-0.38,0.14,-3.23,-5.55,-9.95
1777399200046,1838123,-0.88,-0.38,0.14,-2.75,-4.27,-8.48
1777399200046,1838133,-0.88,-0.38,0.14,-2.44,-2.99,-7.45
1777399200046,1838143,-0.89,-0.38,0.13,-2.20,-2.14,-7.14
1777399200047,1838153,-0.89,-0.38,0.14,-2.01,-1.89,-7.39
1777399200047,1838163,-0.90,-0.38,0.14,-1.77,-2.20,-8.00
1777399200047,1838173,-0.90,-0.38,0.14,-1.71,-2.62,-9.03
1777399200047,1838183,-0.90,-0.37,0.14,-1.71,-2.87,-10.13
1777399200047,1838193,-0.90,-0.37,0.14,-2.08,-2.69,-11.11
1777399200047,1838203,-0.88,-0.37,0.14,-1.71,-2.44,-11.84
1777399200047,1838213,-0.90,-0.37,0.14,-1.10,-2.20,-11.54
1777399200047,1838223,-0.89,-0.38,0.15,-1.04,-2.32,-9.89
1777399200047,1838233,-0.91,-0.36,0.15,-1.53,-2.69,-9.22
1777399200048,1838243,-0.91,-0.36,0.15,-1.71,-2.75,-8.85
1777399200048,1838253,-0.91,-0.36,0.15,-1.46,-2.50,-9.52
1777399200048,1838263,-0.91,-0.36,0.16,-1.34,-1.89,-10.99
1777399200048,1838283,-0.91,-0.34,0.18,-2.20,-1.34,-13.79
1777399200048,1838303,-0.93,-0.29,0.20,-7.75,-6.71,-15.32
1777399200048,1838323,-0.95,-0.24,0.15,-11.72,-11.23,-13.49
1777399200048,1838343,-0.94,-0.19,0.11,-11.47,-7.63,-9.70
1777399200052,1838353,-0.94,-0.16,0.08,-12.02,-4.82,-7.87
1777399200062,1838363,-0.93,-0.13,0.04,-11.60,-1.16,-7.51
1777399200073,1838373,-0.92,-0.14,-0.00,-9.77,4.46,-7.26
1777399200082,1838383,-0.91,-0.14,-0.03,-8.12,11.90,-7.32
1777399200092,1838393,-0.92,-0.16,-0.01,-8.06,18.80,-8.91
1777399200102,1838403,-0.94,-0.19,0.00,-9.34,22.22,-11.72
1777399200112,1838413,-0.97,-0.21,0.02,-12.76,20.57,-16.48
1777399200122,1838423,-1.03,-0.23,0.05,-19.29,13.49,-24.05
1777399200132,1838433,-1.12,-0.24,0.06,-30.82,2.32,-36.99
1777399200143,1838443,-1.18,-0.25,-0.00,-44.01,-10.31,-55.85
1777399200153,1838453,-1.22,-0.24,-0.09,-51.21,-18.01,-75.13
1777399200163,1838463,-1.20,-0.27,-0.18,-49.62,-17.52,-92.10
1777399200173,1838473,-1.15,-0.32,-0.24,-37.84,-8.91,-109.25
1777399200183,1838483,-1.12,-0.45,-0.20,-19.78,5.62,-129.58
1777399200193,1838493,-1.00,-0.60,-0.18,1.16,14.95,-151.12
1777399200203,1838503,-0.85,-0.79,-0.15,24.35,16.30,-169.13
1777399200212,1838513,-0.68,-1.06,-0.12,52.37,10.68,-180.91
1777399200223,1838523,-0.45,-1.35,0.04,83.86,-2.56,-188.60
1777399200233,1838533,-0.23,-1.85,0.40,120.61,-26.55,-191.59
1777399200242,1838543,0.15,-2.49,1.10,173.52,-69.27,-198.12
1777399200252,1838553,0.88,-3.32,2.30,235.23,-138.61,-215.09
1777399200263,1838563,1.82,-3.85,3.55,265.08,-235.53,-234.37
1777399200272,1838573,2.91,-4.00,3.91,189.33,-317.75,-219.85
1777399200282,1838583,3.88,-4.00,3.31,23.86,-297.06,-153.32
1777399200292,1838593,4.00,-4.00,2.67,-109.44,-157.96,-41.69
1777399200303,1838603,4.00,-4.00,2.19,-150.33,-3.42,115.66
1777399200313,1838613,4.00,-3.49,1.87,-156.98,148.93,554.38
1777399200332,1838633,3.65,-1.11,1.80,-136.11,106.57,982.79
1777399200353,1838653,2.19,3.68,0.27,-151.79,-6.41,1059.02
1777399200373,1838673,3.39,4.00,-0.34,-210.14,227.05,575.44
1777399200394,1838693,0.21,4.00,-1.40,-382.14,-5.80,412.78
1777399200405,1838703,-3.15,4.00,-2.00,-326.42,-210.94,400.94
1777399200413,1838713,-4.00,4.00,-2.52,-231.32,-294.37,313.78
1777399200431,1838723,-3.97,3.15,-3.33,-162.96,-202.88,74.04
1777399200433,1838733,-1.98,3.87,-3.14,-91.13,-0.49,-204.90
1777399200442,1838743,-0.37,3.75,-2.39,29.24,148.56,-335.39
1777399200452,1838753,0.34,3.04,-0.98,171.57,186.77,-355.83
1777399200476,1838763,0.67,2.78,0.22,262.02,131.41,-349.79
1777399200476,1838773,0.74,2.90,0.83,256.41,19.29,-354.13
1777399200483,1838783,0.60,2.82,1.33,193.05,-75.20,-353.76
1777399200493,1838793,0.52,2.47,1.25,160.83,-131.59,-349.73
1777399200502,1838803,0.46,2.06,0.92,173.77,-127.81,-344.54
1777399200512,1838813,0.37,1.64,0.84,201.42,-73.36,-335.08
1777399200522,1838823,0.30,1.20,0.99,220.34,-13.92,-326.42
1777399200533,1838833,0.23,0.78,1.14,221.44,22.40,-319.95
1777399200544,1838843,0.15,0.46,1.13,208.86,29.17,-314.39
1777399200552,1838853,0.09,0.26,0.98,189.64,16.78,-307.25
1777399200565,1838863,-0.00,0.07,0.87,169.07,2.75,-297.12
1777399200573,1838873,-0.09,-0.19,0.78,151.79,-6.59,-287.90
1777399200583,1838883,-0.12,-0.44,0.80,133.61,-12.45,-282.35
1777399200592,1838893,-0.19,-0.64,0.85,106.69,-17.52,-274.90
1777399200602,1838903,-0.21,-0.91,0.86,77.39,-23.25,-261.29
1777399200613,1838913,-0.16,-1.18,0.85,60.61,-27.83,-246.64
1777399200622,1838923,-0.14,-1.43,0.93,54.93,-30.76,-233.58
1777399200633,1838933,-0.09,-1.66,0.93,51.88,-38.45,-222.35
1777399200643,1838943,-0.01,-1.80,0.91,43.46,-45.96,-216.80
1777399200652,1838953,0.11,-1.79,0.89,30.15,-48.03,-213.44
1777399200672,1838973,0.45,-1.75,0.87,48.16,-9.95,-173.58
1777399200693,1838993,0.67,-1.51,1.42,96.13,-10.07,-106.45
1777399200712,1839013,0.16,-1.27,1.47,55.54,-54.93,20.14
1777399200733,1839033,-0.48,-1.02,1.13,-31.86,-57.37,86.36
1777399200743,1839043,-0.73,-0.90,0.85,-59.69,-33.26,78.43
1777399200752,1839053,-0.91,-0.78,0.59,-72.81,7.08,58.17
1777399200763,1839063,-0.99,-0.69,0.42,-69.89,54.20,41.69
1777399200772,1839073,-1.02,-0.63,0.32,-56.27,93.51,35.95
1777399200783,1839083,-0.99,-0.66,0.31,-40.95,117.55,38.45
1777399200792,1839093,-0.94,-0.65,0.30,-24.78,123.05,42.60
1777399200802,1839103,-0.87,-0.64,0.30,-12.94,110.17,46.75
1777399200812,1839113,-0.81,-0.64,0.28,-7.75,82.46,51.09
1777399200822,1839123,-0.78,-0.64,0.24,-7.57,46.45,54.32
1777399200832,1839133,-0.78,-0.57,0.20,-8.85,11.78,52.86
1777399200843,1839143,-0.81,-0.48,0.21,-11.66,-12.21,41.56
1777399200852,1839153,-0.83,-0.45,0.18,-15.38,-24.17,22.40
1777399200865,1839163,-0.82,-0.43,0.15,-16.42,-25.45,2.87
1777399200873,1839173,-0.77,-0.44,0.14,-14.89,-19.04,-10.13
1777399200883,1839183,-0.72,-0.47,0.17,-12.88,-10.62,-14.71
1777399200893,1839193,-0.71,-0.50,0.21,-12.70,-6.16,-12.70
1777399200903,1839203,-0.70,-0.52,0.22,-13.43,-7.63,-7.14
1777399200913,1839213,-0.70,-0.51,0.22,-13.49,-11.66,-1.04
1777399200923,1839223,-0.72,-0.51,0.20,-12.63,-14.40,4.58
1777399200933,1839233,-0.72,-0.51,0.19,-10.31,-13.55,9.28
1777399200943,1839243,-0.74,-0.49,0.20,-7.69,-8.54,11.54
1777399200952,1839253,-0.76,-0.50,0.23,-7.08,-1.77,10.13
1777399200962,1839263,-0.76,-0.51,0.24,-7.39,2.75,6.53
1777399200972,1839273,-0.75,-0.53,0.23,-7.81,4.03,2.87
