host_time_ms,arduino_time_ms,ax,ay,az,gx,gy,gz
1777399185367,1818313,-0.86,-0.39,0.10,1.04,8.48,-10.99
1777399185367,1818323,-0.86,-0.41,0.07,-6.10,3.91,-14.04
1777399185367,1818333,-0.85,-0.41,0.06,-9.77,0.85,-13.73
1777399185368,1818343,-0.85,-0.40,0.07,-8.79,-0.85,-10.86
1777399185368,1818353,-0.88,-0.40,0.08,-5.98,-2.56,-4.52
1777399185368,1818363,-0.92,-0.39,0.07,-2.56,-2.75,4.39
1777399185368,1818373,-0.96,-0.37,0.08,1.16,0.61,12.70
1777399185369,1818383,-0.99,-0.32,0.11,5.43,8.12,17.15
1777399185369,1818393,-1.02,-0.30,0.15,7.69,16.30,18.25
1777399185369,1818403,-1.02,-0.30,0.16,7.14,21.55,16.17
1777399185369,1818413,-1.03,-0.31,0.17,3.66,22.28,11.23
1777399185370,1818423,-1.03,-0.32,0.19,-3.48,16.48,5.25
1777399185370,1818433,-1.03,-0.33,0.17,-10.68,5.13,-1.46
1777399185370,1818443,-1.01,-0.32,0.14,-15.50,-6.29,-7.20
1777399185370,1818453,-0.99,-0.31,0.10,-18.19,-12.94,-9.40
1777399185371,1818463,-0.98,-0.30,0.05,-17.40,-13.49,-8.06
1777399185371,1818473,-0.96,-0.28,0.03,-12.02,-8.67,-3.85
1777399185371,1818483,-0.93,-0.30,0.02,-3.30,-1.10,1.95
1777399185371,1818493,-0.93,-0.31,0.04,4.46,5.92,6.16
1777399185372,1818503,-0.92,-0.32,0.06,7.57,10.01,7.08
1777399185372,1818513,-0.91,-0.33,0.07,6.35,10.68,5.31
1777399185372,1818523,-0.89,-0.34,0.08,2.32,8.54,2.62
1777399185372,1818533,-0.88,-0.35,0.07,-2.93,4.27,-0.49
1777399185373,1818543,-0.87,-0.35,0.05,-6.59,-1.40,-3.48
1777399185373,1818553,-0.86,-0.35,0.02,-8.91,-6.59,-5.25
1777399185373,1818563,-0.85,-0.35,-0.00,-9.09,-9.28,-4.70
1777399185374,1818573,-0.84,-0.34,-0.03,-6.35,-8.61,-2.44
1777399185374,1818583,-0.84,-0.33,-0.03,-2.32,-5.31,6.84
1777399185374,1818603,-0.87,-0.32,-0.00,4.39,3.97,11.47
1777399185374,1818623,-0.93,-0.31,0.03,1.95,2.26,7.02
1777399185374,1818643,-0.92,-0.32,0.03,-5.68,-4.82,-1.46
1777399185375,1818663,-0.93,-0.30,0.00,-7.45,-9.77,-2.08
1777399185375,1818673,-0.93,-0.31,-0.00,-4.88,-7.20,0.49
1777399185375,1818683,-0.92,-0.32,-0.00,-1.04,-3.30,4.09
1777399185375,1818693,-0.91,-0.33,-0.00,2.56,0.37,7.81
1777399185376,1818703,-0.92,-0.34,0.01,5.49,2.50,10.86
1777399185376,1818713,-0.93,-0.33,0.03,7.81,2.69,12.82
1777399185376,1818723,-0.94,-0.33,0.05,8.12,1.89,13.79
1777399185376,1818733,-0.96,-0.34,0.06,6.77,0.06,12.88
1777399185377,1818743,-0.96,-0.33,0.09,4.64,-1.34,9.52
1777399185377,1818753,-0.97,-0.33,0.09,0.61,-3.54,6.59
1777399185377,1818763,-0.97,-0.34,0.08,-3.23,-5.80,3.60
1777399185377,1818773,-0.95,-0.33,0.05,-3.78,-6.41,0.67
1777399185377,1818783,-0.93,-0.33,0.04,-1.59,-4.94,-0.18
1777399185378,1818793,-0.91,-0.33,0.04,1.59,-2.93,0.73
1777399185378,1818803,-0.91,-0.34,0.03,5.43,-0.79,2.50
1777399185378,1818813,-0.91,-0.35,0.03,9.83,1.65,4.33
1777399185378,1818823,-0.91,-0.37,0.03,13.37,3.42,5.55
1777399185378,1818833,-0.92,-0.38,0.04,15.44,3.17,5.49
1777399185379,1818843,-0.92,-0.38,0.06,15.44,0.67,3.97
1777399185379,1818853,-0.93,-0.37,0.08,11.60,-4.39,2.62
1777399185379,1818863,-0.96,-0.37,0.06,6.16,-10.99,0.00
1777399185379,1818873,-0.96,-0.33,0.04,2.44,-15.75,-3.23
1777399185380,1818883,-0.96,-0.30,0.02,0.43,-18.07,-5.00
1777399185380,1818893,-0.97,-0.30,0.00,0.98,-18.31,-4.21
1777399185380,1818903,-0.97,-0.26,-0.02,5.31,-16.78,-2.32
1777399185380,1818913,-0.97,-0.25,-0.03,11.47,-13.18,1.22
1777399185381,1818923,-0.98,-0.25,-0.04,18.55,-9.22,5.49
1777399185381,1818943,-0.96,-0.23,-0.02,38.64,-13.43,13.18
1777399185381,1818963,-0.97,-0.24,-0.07,40.10,-32.17,15.87
1777399185381,1818983,-0.96,-0.21,-0.15,47.24,-36.07,27.53
1777399185381,1819003,-1.01,-0.28,-0.05,73.55,-44.92,12.08
1777399185382,1819013,-0.95,-0.29,-0.09,79.90,-52.00,-3.78
1777399185382,1819023,-0.95,-0.24,-0.10,90.39,-57.50,-16.78
1777399185382,1819033,-0.97,-0.21,-0.04,95.95,-64.58,-27.59
1777399185382,1819043,-0.97,-0.21,0.04,96.62,-76.29,-34.67
1777399185382,1819053,-0.96,-0.20,0.09,98.08,-89.54,-38.88
1777399185383,1819063,-0.97,-0.21,0.11,99.37,-98.69,-41.81
1777399185383,1819073,-0.97,-0.23,0.14,98.57,-101.26,-45.59
1777399185383,1819083,-0.96,-0.26,0.17,93.63,-99.98,-50.96
1777399185383,1819093,-0.94,-0.28,0.20,86.67,-97.84,-56.58
1777399185383,1819103,-0.92,-0.29,0.24,80.20,-97.17,-61.89
1777399185384,1819113,-0.89,-0.28,0.27,75.62,-97.84,-66.35
1777399185384,1819123,-0.90,-0.23,0.29,74.16,-99.30,-69.09
1777399185384,1819133,-0.89,-0.25,0.34,72.57,-100.04,-65.49
1777399185384,1819143,-0.86,-0.27,0.38,70.50,-99.55,-60.06
1777399185384,1819153,-0.85,-0.28,0.45,65.73,-96.19,-54.02
1777399185385,1819163,-0.83,-0.30,0.50,57.07,-90.15,-47.73
1777399185385,1819173,-0.84,-0.33,0.53,45.41,-83.01,-43.70
1777399185385,1819183,-0.85,-0.34,0.52,35.10,-76.54,-44.49
1777399185385,1819193,-0.84,-0.32,0.51,28.56,-69.70,-50.05
1777399185385,1819203,-0.81,-0.29,0.51,25.57,-60.79,-56.15
1777399185386,1819213,-0.78,-0.25,0.54,24.35,-50.17,-59.33
1777399185386,1819223,-0.74,-0.25,0.59,22.22,-40.83,-57.07
1777399185386,1819233,-0.73,-0.29,0.60,20.20,-33.87,-49.93
1777399185386,1819243,-0.71,-0.31,0.57,22.52,-28.20,-41.99
1777399185386,1819253,-0.70,-0.34,0.56,25.70,-23.13,-36.44
1777399185387,1819263,-0.69,-0.36,0.58,27.34,-19.17,-34.91
1777399185387,1819273,-0.69,-0.36,0.63,26.61,-0.37,-39.61
1777399185387,1819293,-0.70,-0.39,0.66,8.00,-7.93,-42.42
1777399185387,1819313,-0.72,-0.42,0.60,-3.54,0.49,-38.02
1777399185387,1819333,-0.62,-0.42,0.58,-10.19,1.59,-32.59
1777399185388,1819353,-0.66,-0.40,0.55,-3.54,12.15,-23.32
1777399185388,1819363,-0.67,-0.45,0.56,-7.32,15.14,-24.11
1777399185388,1819373,-0.67,-0.46,0.56,-10.13,15.20,-24.17
1777399185388,1819383,-0.66,-0.44,0.53,-13.18,13.55,-26.61
1777399185388,1819393,-0.65,-0.42,0.49,-18.25,12.02,-29.66
1777399185388,1819403,-0.66,-0.41,0.46,-23.74,10.68,-32.59
1777399185389,1819413,-0.62,-0.39,0.43,-25.57,8.24,-33.81
1777399185389,1819423,-0.61,-0.37,0.40,-23.74,5.80,-31.98
1777399185389,1819433,-0.61,-0.35,0.40,-17.94,2.01,-26.73
1777399185389,1819443,-0.63,-0.35,0.41,-10.19,-2.62,-19.53
1777399185389,1819453,-0.64,-0.35,0.42,-2.14,-7.08,-11.47
1777399185390,1819463,-0.65,-0.34,0.46,4.27,-10.62,-3.85
1777399185390,1819473,-0.69,-0.37,0.45,8.91,-13.12,3.85
1777399185390,1819483,-0.72,-0.35,0.46,13.98,-12.94,7.14
1777399185390,1819493,-0.74,-0.34,0.47,19.71,-10.31,8.42
1777399185390,1819503,-0.76,-0.34,0.52,22.40,-4.88,9.40
1777399185391,1819513,-0.79,-0.36,0.56,22.83,0.61,9.09
1777399185391,1819523,-0.80,-0.38,0.59,23.07,5.62,6.59
1777399185391,1819533,-0.78,-0.36,0.58,23.86,10.80,1.77
1777399185391,1819543,-0.77,-0.34,0.55,22.52,14.59,-4.88
1777399185391,1819553,-0.83,-0.36,0.59,17.40,12.94,-10.19
1777399185391,1819563,-0.78,-0.46,0.59,10.01,5.31,-9.95
1777399185391,1819573,-0.69,-0.49,0.52,3.23,3.48,-5.80
1777399185392,1819583,-0.66,-0.48,0.46,0.49,14.83,-0.98
1777399185392,1819593,-0.67,-0.49,0.43,2.26,31.86,3.42
1777399185392,1819603,-0.69,-0.49,0.45,6.10,46.45,4.58
1777399185392,1819613,-0.69,-0.49,0.47,9.83,54.38,3.17
1777399185392,1819633,-0.68,-0.46,0.48,0.98,74.65,-4.64
1777399185392,1819653,-0.61,-0.29,0.32,-8.91,62.19,3.42
1777399185393,1819673,-0.80,-0.42,0.45,-40.71,64.82,9.77
1777399185393,1819693,-0.89,-0.42,0.28,-47.79,58.29,8.61
1777399185393,1819703,-0.95,-0.46,0.26,-48.83,53.96,5.55
1777399185393,1819713,-0.97,-0.48,0.22,-49.74,51.57,0.31
1777399185393,1819723,-0.99,-0.51,0.20,-48.52,52.43,-2.99
1777399185393,1819733,-1.01,-0.55,0.18,-47.42,54.99,-5.00
1777399185394,1819743,-1.02,-0.59,0.16,-47.42,57.92,-6.29
1777399185394,1819753,-1.02,-0.57,0.13,-45.65,59.94,-7.57
1777399185394,1819763,-1.02,-0.55,0.09,-42.48,61.10,-8.18
1777399185394,1819773,-0.99,-0.51,0.07,-36.13,60.73,-7.87
1777399185394,1819783,-0.98,-0.48,0.08,-29.72,60.18,-7.02
1777399185394,1819793,-0.96,-0.47,0.09,-23.68,57.86,-6.90
1777399185395,1819803,-0.92,-0.45,0.11,-17.82,54.63,-8.24
1777399185395,1819813,-0.90,-0.44,0.12,-13.06,50.72,-9.83
1777399185395,1819823,-0.87,-0.43,0.13,-9.83,46.39,-10.19
1777399185395,1819833,-0.84,-0.42,0.13,-9.03,41.38,-9.40
1777399185395,1819843,-0.81,-0.40,0.12,-10.19,36.38,-8.36
1777399185396,1819853,-0.80,-0.41,0.09,-11.23,32.29,-6.23
1777399185396,1819863,-0.80,-0.42,0.06,-9.46,29.85,-3.11
1777399185396,1819873,-0.81,-0.41,0.06,-4.64,29.11,-0.43
1777399185396,1819883,-0.83,-0.40,0.09,0.61,28.87,2.38
1777399185396,1819893,-0.85,-0.39,0.12,2.87,27.95,5.80
1777399185396,1819903,-0.88,-0.41,0.14,0.73,26.86,8.73
1777399185397,1819913,-0.89,-0.41,0.13,-2.99,26.61,9.22
1777399185397,1819923,-0.89,-0.40,0.12,-7.02,28.02,7.87
1777399185397,1819933,-0.89,-0.40,0.11,-10.74,31.19,5.74
1777399185397,1819943,-0.89,-0.39,0.11,-13.24,34.24,3.78
1777399185397,1819953,-0.88,-0.37,0.09,-13.61,35.52,3.36
1777399185397,1819963,-0.88,-0.36,0.08,-11.90,35.34,7.75
1777399185398,1819983,-0.88,-0.37,0.04,-1.34,27.22,15.81
1777399185398,1820003,-0.92,-0.40,-0.00,-5.92,25.09,19.35
1777399185398,1820023,-0.92,-0.39,-0.06,-10.99,32.84,13.73
1777399185398,1820043,-0.88,-0.41,-0.11,-11.05,40.65,7.45
1777399185398,1820053,-0.86,-0.42,-0.11,-9.28,41.69,6.59
1777399185398,1820063,-0.86,-0.43,-0.12,-6.90,40.22,7.20
1777399185399,1820073,-0.86,-0.42,-0.13,-4.39,36.74,8.48
1777399185399,1820083,-0.87,-0.42,-0.13,-2.26,32.04,9.83
1777399185399,1820093,-0.88,-0.42,-0.12,-0.37,27.04,9.58
1777399185399,1820103,-0.88,-0.41,-0.13,0.49,22.28,8.06
1777399185399,1820113,-0.89,-0.40,-0.13,-1.04,18.68,5.74
1777399185399,1820123,-0.89,-0.40,-0.14,-4.15,15.99,2.93
1777399185400,1820133,-0.89,-0.40,-0.16,-7.39,13.92,0.73
1777399185400,1820143,-0.89,-0.40,-0.17,-9.70,12.27,-1.22
1777399185400,1820153,-0.89,-0.40,-0.18,-10.99,11.11,-4.27
1777399185400,1820163,-0.89,-0.40,-0.19,-10.62,9.22,-6.65
1777399185400,1820173,-0.89,-0.40,-0.19,-9.40,7.32,-7.02
1777399185400,1820183,-0.89,-0.40,-0.19,-8.24,4.88,-6.04
1777399185401,1820193,-0.89,-0.40,-0.19,-6.53,2.26,-4.82
1777399185401,1820203,-0.90,-0.39,-0.18,-4.03,-0.55,-3.78
1777399185401,1820213,-0.90,-0.39,-0.17,-0.73,-3.23,-2.44
1777399185401,1820223,-0.91,-0.37,-0.16,2.26,-5.86,-1.34
1777399185401,1820233,-0.92,-0.36,-0.13,3.23,-8.24,-0.85
1777399185401,1820243,-0.93,-0.37,-0.12,2.44,-10.13,-1.59
1777399185401,1820253,-0.93,-0.37,-0.12,2.26,-11.60,-4.09
1777399185402,1820263,-0.91,-0.38,-0.12,2.44,-11.78,-6.59
1777399185402,1820273,-0.89,-0.38,-0.11,2.56,-10.62,-8.42
1777399185402,1820283,-0.89,-0.38,-0.09,2.08,-8.79,-8.91
1777399185402,1820293,-0.88,-0.38,-0.09,1.53,-7.14,-7.63
1777399185402,1820303,-0.88,-0.38,-0.09,1.46,-5.92,-5.92
1777399185402,1820323,-0.90,-0.39,-0.09,1.59,-4.09,-2.56
1777399185403,1820343,-0.91,-0.39,-0.07,2.08,-4.70,-4.03
1777399185403,1820363,-0.92,-0.39,-0.08,1.46,-5.19,-6.59
1777399185403,1820383,-0.90,-0.39,-0.08,-0.24,-3.36,-7.20
1777399185403,1820393,-0.90,-0.39,-0.08,-1.53,-1.95,-7.32
1777399185403,1820403,-0.89,-0.39,-0.09,-1.89,-0.98,-7.69
1777399185403,1820413,-0.88,-0.39,-0.10,-1.89,-0.79,-7.75
1777399185404,1820423,-0.88,-0.38,-0.11,-1.65,-1.59,-6.90
1777399185404,1820433,-0.88,-0.37,-0.11,-0.55,-2.44,-5.55
1777399185404,1820443,-0.88,-0.38,-0.11,0.92,-3.11,-5.00
1777399185404,1820453,-0.88,-0.39,-0.11,1.95,-3.72,-4.88
1777399185404,1820463,-0.89,-0.38,-0.11,2.14,-4.27,-4.46
1777399185404,1820473,-0.89,-0.38,-0.10,1.59,-4.15,-4.39
1777399185405,1820483,-0.89,-0.38,-0.11,1.10,-3.72,-4.88
1777399185405,1820493,-0.89,-0.37,-0.12,1.22,-3.36,-4.94
1777399185405,1820503,-0.88,-0.37,-0.13,1.95,-2.99,-4.52
1777399185405,1820513,-0.88,-0.37,-0.12,3.05,-2.93,-4.15
1777399185405,1820523,-0.89,-0.38,-0.12,3.66,-3.91,-3.60
1777399185405,1820533,-0.89,-0.38,-0.12,3.91,-5.43,-3.11
1777399185406,1820543,-0.89,-0.37,-0.12,3.48,-6.29,-2.93
1777399185406,1820553,-0.89,-0.38,-0.12,2.62,-6.16,-2.87
1777399185406,1820563,-0.90,-0.39,-0.12,2.93,-5.43,-2.93
1777399185406,1820573,-0.90,-0.39,-0.12,3.72,-4.70,-2.99
1777399185406,1820583,-0.89,-0.39,-0.12,3.85,-4.27,-3.11
1777399185406,1820593,-0.89,-0.39,-0.10,4.15,-4.03,-3.42
1777399185406,1820603,-0.89,-0.38,-0.10,5.07,-4.82,-2.99
1777399185407,1820613,-0.89,-0.37,-0.09,5.43,-6.10,-2.20
1777399185407,1820623,-0.88,-0.36,-0.09,5.31,-7.45,-1.77
1777399185407,1820633,-0.88,-0.36,-0.08,4.82,-8.42,-1.28
1777399185407,1820643,-0.89,-0.37,-0.08,3.91,-8.79,-1.04
1777399185407,1820653,-0.89,-0.37,-0.07,3.36,-8.73,-0.61
1777399185407,1820673,-0.91,-0.37,-0.07,2.01,-6.84,0.37
1777399185407,1820693,-0.92,-0.37,-0.08,2.14,-5.00,-0.73
1777399185408,1820713,-0.93,-0.36,-0.08,0.79,-4.82,-1.40
1777399185408,1820733,-0.94,-0.37,-0.08,1.40,-5.92,-2.81
1777399185408,1820743,-0.94,-0.38,-0.08,1.46,-6.41,-4.39
1777399185408,1820753,-0.94,-0.40,-0.08,1.22,-6.47,-5.68
1777399185408,1820763,-0.93,-0.40,-0.08,1.04,-6.10,-6.77
1777399185408,1820773,-0.92,-0.40,-0.08,0.92,-5.37,-7.93
1777399185408,1820783,-0.90,-0.40,-0.08,0.73,-4.39,-8.00
1777399185408,1820793,-0.89,-0.40,-0.09,0.43,-3.23,-7.26
1777399185409,1820803,-0.89,-0.40,-0.10,-0.24,-2.56,-6.10
1777399185409,1820813,-0.89,-0.40,-0.11,-0.73,-2.32,-5.43
1777399185409,1820823,-0.88,-0.39,-0.13,-0.55,-2.01,-5.00
1777399185409,1820833,-0.88,-0.38,-0.14,0.61,-1.34,-4.58
1777399185409,1820843,-0.87,-0.38,-0.14,2.56,-1.10,-4.52
1777399185409,1820853,-0.87,-0.38,-0.13,4.39,-1.59,-3.91
1777399185410,1820863,-0.87,-0.38,-0.13,5.13,-2.81,-3.17
1777399185410,1820873,-0.87,-0.38,-0.13,5.37,-4.09,-2.93
1777399185410,1820883,-0.88,-0.38,-0.12,5.62,-4.94,-2.93
1777399185410,1820893,-0.88,-0.38,-0.12,5.74,-5.49,-2.99
1777399185410,1820903,-0.88,-0.38,-0.12,5.74,-5.62,-2.99
1777399185410,1820913,-0.89,-0.37,-0.12,5.80,-5.62,-2.81
1777399185410,1820923,-0.89,-0.37,-0.12,6.10,-5.49,-2.69
1777399185411,1820933,-0.89,-0.36,-0.11,6.65,-5.37,-2.44
1777399185411,1820943,-0.90,-0.36,-0.11,6.71,-5.49,-2.01
1777399185411,1820953,-0.90,-0.36,-0.10,7.20,-5.37,-1.89
1777399185411,1820963,-0.90,-0.36,-0.10,8.06,-5.37,-2.20
1777399185411,1820973,-0.90,-0.36,-0.10,8.30,-5.31,-3.23
1777399185411,1820983,-0.90,-0.36,-0.09,7.69,-5.31,-3.97
1777399185411,1820993,-0.91,-0.37,-0.08,7.63,-5.37,-3.30
1777399185412,1821013,-0.91,-0.36,-0.07,6.59,-6.59,-1.53
1777399185412,1821033,-0.93,-0.37,-0.06,3.17,-6.90,-1.65
1777399185412,1821053,-0.94,-0.36,-0.07,3.78,-5.25,-2.69
1777399185412,1821073,-0.94,-0.36,-0.07,4.27,-2.69,-4.70
1777399185412,1821083,-0.94,-0.36,-0.08,4.15,-1.89,-5.62
1777399185412,1821093,-0.92,-0.36,-0.08,3.85,-1.28,-6.16
1777399185413,1821103,-0.91,-0.36,-0.09,3.91,-1.22,-6.96
1777399185413,1821113,-0.91,-0.36,-0.09,4.27,-1.40,-7.51
1777399185413,1821123,-0.89,-0.37,-0.09,4.33,-2.08,-7.32
1777399185413,1821133,-0.88,-0.37,-0.09,3.66,-2.81,-7.08
1777399185413,1821143,-0.88,-0.38,-0.09,2.81,-3.48,-7.26
1777399185413,1821153,-0.87,-0.37,-0.10,2.50,-4.15,-7.45
1777399185413,1821163,-0.87,-0.37,-0.10,2.87,-4.21,-6.84
1777399185414,1821173,-0.87,-0.37,-0.10,3.48,-3.85,-5.98
1777399185414,1821183,-0.87,-0.38,-0.10,3.36,-3.72,-5.00
1777399185414,1821193,-0.88,-0.38,-0.11,3.23,-3.97,-4.09
1777399185414,1821203,-0.88,-0.38,-0.12,3.54,-4.15,-3.78
1777399185414,1821213,-0.89,-0.37,-0.11,3.97,-3.91,-3.78
1777399185414,1821223,-0.89,-0.37,-0.11,4.46,-3.54,-3.54
1777399185414,1821233,-0.90,-0.37,-0.11,5.13,-3.72,-3.36
1777399185415,1821243,-0.90,-0.36,-0.10,5.37,-4.52,-2.62
1777399185415,1821253,-0.91,-0.36,-0.09,5.55,-5.49,-1.77
1777399185415,1821263,-0.92,-0.36,-0.08,5.62,-6.41,-1.65
1777399185415,1821273,-0.93,-0.36,-0.08,5.31,-7.20,-2.20
1777399185415,1821283,-0.93,-0.36,-0.08,4.58,-7.51,-3.36
1777399185415,1821293,-0.93,-0.36,-0.08,4.21,-7.26,-4.33
1777399185415,1821303,-0.93,-0.36,-0.07,4.21,-6.47,-4.70
1777399185416,1821313,-0.93,-0.36,-0.07,4.03,-5.25,-4.70
1777399185416,1821323,-0.93,-0.37,-0.07,3.78,-4.46,-4.64
1777399185416,1821333,-0.92,-0.36,-0.07,3.97,-4.21,-4.64
1777399185416,1821343,-0.92,-0.36,-0.08,4.27,-3.85,-4.70
1777399185416,1821363,-0.91,-0.36,-0.06,4.94,-4.39,-5.19
1777399185416,1821383,-0.91,-0.35,-0.05,2.50,-5.92,-5.80
1777399185416,1821403,-0.91,-0.36,-0.06,1.46,-5.92,-5.13
1777399185416,1821423,-0.91,-0.36,-0.07,0.92,-4.15,-5.13
1777399185417,1821433,-0.90,-0.36,-0.08,0.79,-3.17,-5.00
1777399185417,1821443,-0.90,-0.36,-0.08,0.98,-2.62,-4.64
1777399185417,1821453,-0.90,-0.36,-0.08,1.40,-2.50,-4.27
1777399185417,1821463,-0.90,-0.37,-0.08,1.34,-2.87,-4.03
1777399185417,1821473,-0.91,-0.37,-0.10,0.92,-3.17,-4.33
1777399185417,1821483,-0.91,-0.36,-0.10,0.37,-3.36,-4.82
1777399185417,1821493,-0.91,-0.36,-0.11,0.18,-3.60,-5.31
1777399185417,1821503,-0.91,-0.37,-0.11,0.73,-3.48,-5.62
1777399185418,1821513,-0.90,-0.37,-0.11,1.40,-3.36,-5.80
1777399185418,1821523,-0.89,-0.37,-0.11,1.53,-3.30,-5.74
1777399185418,1821533,-0.89,-0.38,-0.11,1.28,-3.17,-5.80
1777399185418,1821543,-0.88,-0.37,-0.11,1.22,-3.11,-6.29
1777399185418,1821553,-0.88,-0.37,-0.11,1.59,-3.36,-5.68
1777399185418,1821563,-0.88,-0.37,-0.11,1.95,-3.91,-4.70
1777399185418,1821573,-0.89,-0.37,-0.11,2.44,-4.64,-4.33
1777399185418,1821583,-0.89,-0.37,-0.11,2.93,-4.94,-4.21
1777399185419,1821593,-0.89,-0.38,-0.11,2.99,-4.64,-4.15
1777399185419,1821603,-0.89,-0.38,-0.11,3.23,-3.91,-4.39
1777399185419,1821613,-0.89,-0.37,-0.11,3.78,-3.23,-4.70
1777399185419,1821623,-0.89,-0.37,-0.11,4.21,-2.99,-4.46
1777399185419,1821633,-0.89,-0.38,-0.10,4.33,-3.17,-3.72
1777399185419,1821643,-0.90,-0.38,-0.10,4.27,-3.78,-3.05
1777399185419,1821653,-0.91,-0.38,-0.10,4.21,-4.46,-3.05
1777399185420,1821663,-0.91,-0.38,-0.10,4.46,-4.82,-3.54
1777399185420,1821673,-0.91,-0.37,-0.10,4.46,-4.76,-3.97
1777399185420,1821683,-0.91,-0.37,-0.09,4.27,-4.58,-3.91
1777399185420,1821703,-0.91,-0.38,-0.09,5.31,-3.97,-4.33
1777399185420,1821723,-0.91,-0.37,-0.09,4.76,-4.15,-4.15
1777399185420,1821743,-0.92,-0.36,-0.09,3.85,-3.60,-3.97
1777399185421,1821763,-0.92,-0.36,-0.10,4.03,-2.99,-4.70
1777399185421,1821773,-0.91,-0.37,-0.10,4.27,-3.11,-4.82
1777399185421,1821783,-0.91,-0.37,-0.10,4.15,-3.60,-5.31
1777399185421,1821793,-0.90,-0.36,-0.10,4.03,-4.27,-5.62
1777399185421,1821803,-0.90,-0.36,-0.11,4.15,-4.46,-5.37
1777399185421,1821813,-0.91,-0.36,-0.11,4.70,-4.33,-5.07
1777399185421,1821823,-0.90,-0.36,-0.11,5.25,-3.91,-5.07
1777399185422,1821833,-0.90,-0.37,-0.10,5.31,-3.66,-5.31
1777399185422,1821843,-0.90,-0.37,-0.11,5.07,-3.97,-5.86
1777399185422,1821853,-0.90,-0.37,-0.11,4.76,-4.39,-6.35
1777399185422,1821863,-0.89,-0.38,-0.11,4.64,-4.94,-6.29
1777399185422,1821873,-0.89,-0.38,-0.11,4.82,-5.55,-5.74
1777399185422,1821883,-0.89,-0.38,-0.10,5.13,-5.98,-4.82
1777399185422,1821893,-0.89,-0.38,-0.10,5.37,-6.16,-3.91
1777399185422,1821903,-0.89,-0.38,-0.10,5.37,-5.80,-3.85
1777399185423,1821913,-0.89,-0.38,-0.09,5.43,-5.37,-4.27
1777399185423,1821923,-0.90,-0.37,-0.09,5.62,-5.00,-3.91
1777399185423,1821933,-0.90,-0.36,-0.09,5.25,-5.07,-3.17
1777399185423,1821943,-0.91,-0.36,-0.09,5.13,-5.07,-3.17
1777399185423,1821953,-0.91,-0.36,-0.09,5.19,-5.19,-3.54
1777399185423,1821963,-0.91,-0.35,-0.09,5.13,-5.19,-3.91
1777399185423,1821973,-0.92,-0.35,-0.08,5.07,-5.25,-4.33
1777399185423,1821983,-0.92,-0.34,-0.08,5.13,-5.55,-4.15
1777399185424,1821993,-0.92,-0.34,-0.08,5.37,-5.74,-3.85
1777399185424,1822003,-0.92,-0.35,-0.07,5.37,-5.74,-3.72
1777399185424,1822013,-0.92,-0.35,-0.07,5.37,-5.68,-3.85
1777399185424,1822023,-0.92,-0.35,-0.07,5.37,-5.43,-4.15
1777399185424,1822033,-0.91,-0.35,-0.07,5.00,-5.43,-4.88
1777399185424,1822053,-0.90,-0.35,-0.06,3.11,-6.77,-5.68
1777399185424,1822073,-0.89,-0.37,-0.05,2.44,-6.84,-5.74
1777399185424,1822093,-0.88,-0.37,-0.06,1.89,-7.14,-5.31
1777399185425,1822113,-0.87,-0.38,-0.06,1.89,-5.55,-3.72
1777399185425,1822123,-0.87,-0.38,-0.07,1.83,-4.88,-3.17
1777399185425,1822133,-0.88,-0.38,-0.07,1.89,-4.46,-2.20
1777399185425,1822143,-0.88,-0.38,-0.07,1.89,-4.27,-1.59
1777399185425,1822153,-0.89,-0.37,-0.08,1.71,-4.33,-1.16
1777399185425,1822163,-0.89,-0.37,-0.08,1.65,-4.70,-0.73
1777399185425,1822173,-0.90,-0.36,-0.08,1.65,-5.25,-0.67
1777399185425,1822183,-0.90,-0.36,-0.09,1.59,-5.80,-0.61
1777399185426,1822193,-0.91,-0.36,-0.08,1.95,-5.98,-0.67
1777399185426,1822203,-0.91,-0.35,-0.08,2.14,-6.16,-0.73
1777399185426,1822213,-0.92,-0.34,-0.08,1.71,-6.10,-0.67
1777399185426,1822223,-0.93,-0.34,-0.08,1.40,-5.92,-0.37
1777399185426,1822233,-0.93,-0.33,-0.08,1.59,-5.43,-0.49
1777399185426,1822243,-0.94,-0.34,-0.08,1.59,-4.76,-1.04
1777399185426,1822253,-0.94,-0.35,-0.08,1.71,-4.15,-1.71
1777399185426,1822263,-0.94,-0.35,-0.08,1.65,-3.78,-2.93
1777399185427,1822273,-0.93,-0.35,-0.08,1.83,-3.66,-3.97
1777399185427,1822283,-0.92,-0.36,-0.08,2.14,-3.72,-4.76
1777399185427,1822293,-0.91,-0.37,-0.08,1.71,-3.60,-5.43
1777399185427,1822303,-0.90,-0.38,-0.09,1.34,-3.11,-5.92
1777399185427,1822313,-0.89,-0.38,-0.10,1.34,-2.32,-6.41
1777399185427,1822323,-0.88,-0.39,-0.11,1.71,-1.83,-6.65
1777399185427,1822333,-0.89,-0.40,-0.11,1.77,-1.71,-6.35
1777399185427,1822343,-0.88,-0.40,-0.12,2.26,-1.77,-5.62
1777399185428,1822353,-0.88,-0.40,-0.14,2.38,-2.01,-5.07
1777399185428,1822363,-0.88,-0.39,-0.14,2.62,-1.40,-4.70
1777399185428,1822373,-0.88,-0.39,-0.15,2.87,-0.73,-4.52
1777399185428,1822383,-0.88,-0.39,-0.15,3.36,-0.55,-4.82
1777399185428,1822403,-0.87,-0.38,-0.16,4.58,-3.85,-3.23
1777399185428,1822423,-0.89,-0.36,-0.17,7.26,-6.90,-0.92
1777399185428,1822443,-0.91,-0.35,-0.15,9.28,-7.57,0.79
1777399185429,1822453,-0.92,-0.33,-0.14,9.40,-7.93,1.10
1777399185429,1822463,-0.93,-0.32,-0.14,9.77,-8.00,1.65
1777399185429,1822473,-0.94,-0.32,-0.13,10.19,-8.36,2.08
1777399185429,1822483,-0.96,-0.32,-0.11,10.25,-8.85,1.40
1777399185429,1822493,-0.96,-0.32,-0.10,10.01,-9.40,-0.12
1777399185429,1822503,-0.96,-0.31,-0.10,9.64,-9.95,-1.40
1777399185429,1822513,-0.96,-0.31,-0.09,9.89,-10.25,-2.69
1777399185429,1822523,-0.95,-0.32,-0.08,10.68,-10.50,-3.36
1777399185430,1822533,-0.94,-0.32,-0.07,11.35,-11.11,-3.78
1777399185430,1822543,-0.93,-0.33,-0.06,11.54,-12.02,-3.78
1777399185430,1822553,-0.91,-0.33,-0.05,10.86,-12.76,-3.72
1777399185430,1822563,-0.90,-0.33,-0.04,10.01,-13.18,-3.78
1777399185430,1822573,-0.90,-0.32,-0.03,9.52,-13.49,-3.60
1777399185430,1822583,-0.90,-0.33,-0.02,8.48,-13.49,-3.60
1777399185430,1822593,-0.89,-0.33,-0.01,7.14,-13.24,-4.21
1777399185431,1822603,-0.89,-0.34,-0.01,5.86,-13.31,-4.21
1777399185431,1822613,-0.89,-0.35,-0.01,3.97,-13.61,-3.97
1777399185431,1822623,-0.89,-0.35,-0.02,2.56,-13.85,-3.54
1777399185431,1822633,-0.89,-0.34,-0.03,2.08,-13.79,-2.69
1777399185431,1822643,-0.89,-0.34,-0.03,2.20,-13.67,-1.40
1777399185431,1822653,-0.90,-0.34,-0.03,3.11,-13.37,-0.18
1777399185431,1822663,-0.90,-0.35,-0.03,3.91,-13.49,1.16
1777399185431,1822673,-0.91,-0.35,-0.03,4.03,-13.61,1.83
1777399185432,1822683,-0.92,-0.36,-0.04,3.36,-13.55,2.01
1777399185432,1822693,-0.93,-0.36,-0.05,2.50,-13.37,1.77
1777399185432,1822703,-0.92,-0.37,-0.06,1.71,-12.70,0.73
1777399185432,1822713,-0.90,-0.37,-0.07,1.59,-12.15,-0.12
1777399185432,1822723,-0.89,-0.37,-0.08,1.34,-11.60,-0.73
1777399185432,1822743,-0.88,-0.37,-0.09,2.50,-14.04,2.93
1777399185432,1822763,-0.91,-0.34,-0.09,2.56,-15.56,5.37
1777399185432,1822783,-0.93,-0.34,-0.09,3.91,-14.28,5.13
1777399185432,1822803,-0.94,-0.33,-0.07,5.07,-13.00,4.76
1777399185433,1822813,-0.93,-0.33,-0.06,5.62,-13.61,4.82
1777399185433,1822823,-0.95,-0.32,-0.05,6.35,-14.40,5.07
1777399185433,1822833,-0.95,-0.32,-0.05,6.59,-15.63,5.43
1777399185433,1822843,-0.96,-0.32,-0.04,7.39,-15.93,5.74
1777399185433,1822853,-0.97,-0.32,-0.04,8.48,-14.83,5.92
1777399185433,1822863,-0.97,-0.33,-0.03,9.22,-13.06,5.62
1777399185433,1822873,-0.97,-0.33,-0.02,9.28,-11.17,4.70
1777399185433,1822883,-0.97,-0.34,-0.01,8.97,-10.38,3.91
1777399185434,1822893,-0.97,-0.34,-0.00,8.54,-10.50,2.99
1777399185434,1822903,-0.97,-0.34,-0.00,8.18,-11.72,2.26
1777399185434,1822913,-0.97,-0.34,-0.00,7.87,-13.12,2.01
1777399185434,1822923,-0.97,-0.32,0.01,7.26,-14.65,1.83
1777399185434,1822933,-0.97,-0.32,0.03,6.29,-16.42,1.34
1777399185434,1822943,-0.98,-0.31,0.04,5.07,-18.43,0.55
1777399185434,1822953,-0.98,-0.29,0.04,3.85,-20.57,-0.37
1777399185434,1822963,-0.95,-0.28,0.06,3.17,-21.91,-0.79
1777399185434,1822973,-0.93,-0.23,0.07,2.50,-22.83,-1.89
1777399185435,1822983,-0.93,-0.22,0.10,1.10,-23.32,-2.01
1777399185435,1822993,-0.93,-0.23,0.10,-0.12,-22.95,-0.37
1777399185435,1823003,-0.91,-0.23,0.09,-1.71,-21.48,0.67
1777399185435,1823013,-0.91,-0.22,0.09,-3.23,-18.01,1.04
1777399185435,1823023,-0.91,-0.23,0.09,-4.64,-14.10,2.01
1777399185435,1823033,-0.90,-0.23,0.08,-6.04,-9.95,2.81
1777399185435,1823043,-0.90,-0.22,0.08,-6.10,-6.23,4.15
1777399185435,1823053,-0.90,-0.24,0.08,-5.80,-3.54,6.10
1777399185436,1823063,-0.90,-0.25,0.08,-6.16,-2.32,7.51
1777399185436,1823073,-0.90,-0.26,0.06,-7.26,-2.75,8.12
1777399185436,1823093,-0.91,-0.26,0.03,-12.88,-2.26,7.93
1777399185436,1823113,-0.93,-0.25,0.03,-19.78,0.55,5.92
1777399185436,1823133,-0.94,-0.26,0.02,-25.39,1.22,4.27
1777399185436,1823153,-0.93,-0.24,0.01,-29.72,4.82,0.85
1777399185436,1823163,-0.95,-0.21,0.02,-30.94,6.10,0.00
1777399185436,1823173,-1.00,-0.26,0.07,-29.30,3.48,-1.28
1777399185437,1823183,-0.92,-0.21,-0.03,-16.91,-5.86,-3.05
1777399185437,1823193,-0.91,-0.22,-0.04,-19.47,-4.82,-6.41
1777399185437,1823203,-0.89,-0.28,-0.04,-28.14,0.73,-7.45
1777399185437,1823213,-0.89,-0.29,-0.06,-29.79,3.42,-7.51
1777399185437,1823223,-0.91,-0.24,-0.06,-29.66,5.80,-8.79
1777399185437,1823233,-0.96,-0.20,-0.06,-30.64,5.37,-13.00
1777399185437,1823243,-0.98,-0.20,-0.06,-25.21,0.49,-21.42
1777399185437,1823253,-0.95,-0.21,-0.08,-9.40,-4.58,-30.46
1777399185437,1823263,-0.94,-0.22,-0.10,5.37,-5.80,-37.66
1777399185438,1823273,-0.92,-0.23,-0.06,12.15,-6.10,-42.05
1777399185438,1823283,-0.90,-0.26,0.02,10.25,-8.48,-42.85
1777399185438,1823293,-0.91,-0.30,0.01,-2.14,-12.94,-40.34
1777399185438,1823303,-0.93,-0.30,-0.01,-20.45,-17.52,-38.21
1777399185438,1823313,-0.93,-0.29,-0.06,-32.41,-20.81,-37.23
1777399185438,1823323,-0.90,-0.31,-0.08,-35.22,-18.25,-36.13
1777399185438,1823333,-0.91,-0.31,-0.07,-32.84,-13.00,-33.08
1777399185438,1823343,-0.89,-0.29,-0.09,-25.33,-12.45,-29.54
1777399185439,1823353,-0.91,-0.37,-0.06,-20.32,-12.15,-24.05
1777399185439,1823363,-0.92,-0.38,-0.04,-18.62,-8.12,-17.40
1777399185439,1823373,-0.91,-0.38,-0.05,-13.79,-5.25,-13.06
1777399185439,1823383,-0.91,-0.40,-0.03,-9.95,0.49,-9.16
1777399185439,1823393,-0.91,-0.40,-0.01,-8.79,5.07,-7.02
1777399185439,1823403,-0.91,-0.39,0.01,-11.84,7.51,-5.49
1777399185439,1823413,-0.91,-0.39,0.02,-17.40,8.00,-3.11
1777399185439,1823433,-0.95,-0.39,-0.02,-27.10,-1.10,-0.55
1777399185439,1823453,-0.97,-0.38,-0.04,-16.54,-8.00,-0.43
1777399185440,1823473,-0.99,-0.37,-0.01,-8.67,-13.12,-0.79
1777399185440,1823493,-0.99,-0.37,0.01,-8.30,-15.56,-2.01
1777399185440,1823503,-0.98,-0.38,0.01,-10.25,-16.24,-3.91
1777399185440,1823513,-0.97,-0.38,-0.00,-12.02,-16.97,-5.80
1777399185440,1823523,-0.96,-0.37,-0.01,-13.73,-18.62,-7.26
1777399185440,1823533,-0.96,-0.37,-0.02,-15.56,-20.69,-8.42
1777399185440,1823543,-0.95,-0.36,-0.02,-16.24,-21.79,-8.73
1777399185441,1823553,-0.95,-0.35,-0.03,-16.48,-21.79,-8.42
1777399185441,1823563,-0.95,-0.35,-0.04,-16.17,-21.79,-9.64
1777399185441,1823573,-0.93,-0.35,-0.04,-12.02,-20.57,-11.96
1777399185441,1823583,-0.92,-0.35,-0.03,-6.59,-17.58,-13.18
1777399185441,1823593,-0.92,-0.36,-0.01,-5.55,-16.48,-13.12
1777399185441,1823603,-0.92,-0.35,0.00,-7.32,-17.40,-12.63
1777399185441,1823613,-0.91,-0.34,-0.00,-8.85,-19.41,-12.21
1777399185441,1823623,-0.90,-0.34,-0.00,-9.89,-20.81,-11.41
1777399185442,1823633,-0.91,-0.33,-0.01,-10.93,-21.00,-10.86
1777399185442,1823643,-0.91,-0.33,-0.01,-11.90,-20.63,-9.83
1777399185442,1823653,-0.91,-0.32,-0.03,-11.54,-19.71,-7.87
1777399185442,1823663,-0.91,-0.32,-0.04,-9.34,-18.07,-5.00
1777399185442,1823673,-0.92,-0.31,-0.03,-5.49,-15.38,-2.56
1777399185442,1823683,-0.94,-0.31,-0.02,-1.71,-13.06,-2.50
1777399185442,1823693,-0.94,-0.31,0.00,1.40,-11.29,-4.52
1777399185442,1823703,-0.94,-0.31,0.01,2.93,-10.93,-7.45
1777399185442,1823713,-0.93,-0.32,0.02,1.59,-12.45,-10.44
1777399185443,1823723,-0.93,-0.31,0.01,-0.73,-15.81,-13.12
1777399185443,1823733,-0.93,-0.31,-0.00,-2.62,-19.90,-14.65
1777399185443,1823743,-0.94,-0.32,-0.02,-3.48,-22.95,-14.47
1777399185453,1823753,-0.96,-0.31,-0.03,-2.75,-23.80,-13.61
1777399185463,1823763,-0.97,-0.32,-0.03,-1.40,-23.56,-7.93
1777399185483,1823783,-0.98,-0.41,-0.05,5.92,-16.78,-1.59
1777399185503,1823803,-1.01,-0.90,0.19,26.31,-14.89,4.33
1777399185523,1823823,-1.09,-2.09,1.18,73.61,-58.04,14.16
1777399185543,1823843,-0.94,-3.84,2.57,143.74,-141.24,-3.60
1777399185553,1823853,-0.66,-4.00,3.00,132.02,-154.36,-8.24
1777399185563,1823863,-0.35,-4.00,2.99,43.64,-112.55,20.81
1777399185573,1823873,-0.14,-4.00,2.52,-73.91,-10.19,72.81
1777399185583,1823883,0.22,-4.00,2.01,-153.81,125.00,129.82
1777399185593,1823893,0.73,-3.67,1.64,-182.13,240.54,191.96
1777399185603,1823903,1.42,-2.83,1.62,-192.14,302.37,271.30
1777399185613,1823913,2.07,-1.92,1.72,-224.67,272.46,377.20
1777399185623,1823923,2.37,-0.69,1.56,-278.32,131.65,488.34
1777399185633,1823933,2.38,1.09,0.59,-334.72,-64.88,585.02
1777399185643,1823943,2.90,2.60,-0.73,-332.28,-169.56,682.92
1777399185653,1823953,3.77,4.00,-1.61,-210.45,-67.93,741.70
1777399185663,1823963,3.05,4.00,-1.57,-85.39,196.66,666.26
1777399185673,1823973,2.43,4.00,-1.47,-107.97,407.41,460.51
1777399185689,1823983,0.99,4.00,-1.49,-231.93,373.66,230.22
1777399185693,1823993,-1.33,4.00,-2.28,-322.39,109.01,70.62
1777399185703,1824003,-2.73,4.00,-2.85,-292.30,-183.47,-47.55
1777399185713,1824013,-1.26,4.00,-3.43,-127.08,-321.66,-201.60
1777399185723,1824023,0.72,4.00,-2.82,17.15,-278.75,-338.44
1777399185733,1824033,1.49,3.48,-1.17,82.46,-201.42,-409.18
1777399185743,1824043,1.63,2.74,-0.10,126.95,-179.50,-399.48
1777399185753,1824053,1.40,2.28,0.73,164.67,-168.46,-358.52
1777399185763,1824063,1.04,1.91,1.10,186.46,-144.96,-319.52
1777399185773,1824073,0.72,1.42,1.15,199.04,-112.98,-300.60
1777399185783,1824083,0.40,0.84,1.20,206.12,-79.10,-304.44
1777399185793,1824093,0.26,0.37,1.12,213.07,-57.80,-319.15
1777399185803,1824103,0.38,-0.03,1.22,214.48,-47.79,-309.39
1777399185823,1824123,0.13,-0.98,1.13,102.05,-58.72,-268.55
1777399185843,1824143,0.08,-1.32,0.87,59.75,-4.58,-200.56
1777399185863,1824163,-0.27,-1.52,0.84,57.19,41.87,-158.08
1777399185883,1824183,-0.57,-1.78,0.83,56.27,36.74,-161.80
1777399185893,1824193,-0.60,-1.75,0.86,62.93,16.24,-182.19
1777399185903,1824203,-0.56,-1.63,0.89,73.67,-13.55,-200.62
1777399185913,1824213,-0.52,-1.48,0.94,72.69,-47.79,-204.65
1777399185923,1824223,-0.52,-1.36,1.01,47.61,-82.82,-188.48
1777399185933,1824233,-0.58,-1.26,0.95,5.13,-111.57,-155.27
1777399185943,1824243,-0.65,-1.19,0.79,-32.84,-123.66,-112.92
1777399185953,1824253,-0.68,-1.06,0.63,-43.88,-113.83,-72.33
1777399185963,1824263,-0.68,-0.99,0.55,-27.10,-84.53,-38.82
1777399185973,1824273,-0.71,-0.93,0.56,3.17,-43.70,-13.79
1777399185983,1824283,-0.80,-0.84,0.59,25.21,-4.39,6.84
1777399185993,1824293,-0.90,-0.78,0.60,26.86,23.50,25.33
1777399186003,1824303,-0.98,-0.69,0.55,15.01,40.59,36.19
1777399186013,1824313,-1.04,-0.59,0.47,0.92,52.98,39.55
1777399186023,1824323,-1.08,-0.51,0.38,-10.38,62.13,40.34
1777399186033,1824333,-1.10,-0.45,0.30,-19.10,65.49,41.44
1777399186043,1824343,-1.06,-0.41,0.24,-25.94,61.71,41.26
1777399186053,1824353,-1.03,-0.40,0.17,-32.23,52.86,39.49
1777399186063,1824363,-0.97,-0.42,0.09,-34.00,41.32,35.34
1777399186073,1824373,-0.90,-0.45,0.04,-26.49,28.93,26.55
1777399186083,1824383,-0.86,-0.45,0.03,-11.41,17.27,15.26
1777399186093,1824393,-0.83,-0.44,0.07,2.87,6.96,6.65
1777399186103,1824403,-0.82,-0.43,0.14,9.40,-2.20,2.14
1777399186113,1824413,-0.84,-0.39,0.19,6.71,-12.94,1.71
1777399186123,1824423,-0.85,-0.36,0.21,-0.61,-23.62,3.30
1777399186133,1824433,-0.88,-0.34,0.20,-5.98,-31.07,4.03
1777399186143,1824443,-0.89,-0.33,0.21,-9.03,-33.81,2.38
1777399186153,1824453,-0.90,-0.33,0.22,-11.35,-33.45,-8.06
1777399186173,1824473,-0.88,-0.35,0.21,-9.28,-28.08,-15.87
1777399186193,1824493,-0.82,-0.37,0.20,-1.95,-15.08,-12.57
1777399186213,1824513,-0.80,-0.41,0.21,-4.27,-3.17,-1.22
1777399186233,1824533,-0.79,-0.40,0.15,-10.56,0.49,1.40
1777399186243,1824543,-0.80,-0.39,0.14,-8.91,1.46,1.65
1777399186253,1824553,-0.80,-0.40,0.16,-6.35,0.55,0.61
1777399186263,1824563,-0.80,-0.40,0.15,-3.05,-2.75,-0.98
1777399186273,1824573,-0.81,-0.39,0.14,-0.12,-7.08,-0.92
1777399186283,1824583,-0.82,-0.38,0.14,2.08,-11.17,0.73
1777399186293,1824593,-0.85,-0.36,0.16,4.88,-13.24,2.99
1777399186303,1824603,-0.87,-0.35,0.19,8.48,-13.61,6.04
1777399186313,1824613,-0.89,-0.35,0.22,9.40,-12.94,8.91
1777399186323,1824623,-0.92,-0.36,0.24,5.49,-11.41,9.09
1777399186333,1824633,-0.93,-0.36,0.23,0.06,-9.03,7.39
1777399186343,1824643,-0.93,-0.36,0.22,-2.81,-4.70,5.31
1777399186353,1824653,-0.93,-0.36,0.22,-2.62,0.85,2.93
1777399186363,1824663,-0.93,-0.37,0.23,-1.16,5.43,0.61
1777399186373,1824673,-0.92,-0.38,0.24,0.98,7.20,-0.61
