host_time_ms,arduino_time_ms,ax,ay,az,gx,gy,gz
1777399194426,1829033,-0.65,-0.53,0.09,-4.15,-29.85,1.89
1777399194426,1829043,-0.67,-0.53,0.12,0.55,-25.57,5.13
1777399194427,1829053,-0.70,-0.52,0.15,2.81,-18.49,6.04
1777399194427,1829063,-0.75,-0.51,0.18,1.83,-10.62,4.82
1777399194427,1829073,-0.79,-0.51,0.17,-0.31,-3.91,2.50
1777399194427,1829083,-0.83,-0.51,0.15,-1.71,1.34,-0.31
1777399194428,1829093,-0.85,-0.50,0.16,-2.14,5.55,-2.38
1777399194428,1829103,-0.86,-0.51,0.17,-2.56,7.02,-2.08
1777399194428,1829113,-0.84,-0.52,0.18,-2.26,6.10,-0.55
1777399194428,1829123,-0.81,-0.54,0.18,-0.37,4.15,-0.12
1777399194429,1829133,-0.78,-0.55,0.19,0.55,1.46,-0.24
1777399194429,1829143,-0.76,-0.56,0.20,-1.10,-3.36,-0.67
1777399194429,1829153,-0.76,-0.55,0.21,-3.78,-10.44,-2.62
1777399194429,1829163,-0.78,-0.54,0.19,-5.86,-19.04,-4.64
1777399194430,1829173,-0.83,-0.52,0.18,-6.77,-24.29,-6.29
1777399194430,1829183,-0.86,-0.51,0.16,-5.55,-23.19,-7.14
1777399194430,1829193,-0.86,-0.51,0.16,-2.50,-15.08,-6.47
1777399194431,1829203,-0.87,-0.52,0.16,2.44,-2.44,-5.43
1777399194431,1829213,-0.86,-0.53,0.18,6.65,10.19,-5.00
1777399194431,1829223,-0.83,-0.54,0.20,7.81,18.55,-5.25
1777399194432,1829233,-0.82,-0.54,0.22,5.80,19.90,-4.94
1777399194432,1829243,-0.81,-0.55,0.22,1.77,14.77,-4.33
1777399194432,1829253,-0.79,-0.54,0.19,-2.08,5.68,-3.91
1777399194433,1829263,-0.78,-0.53,0.17,-4.21,-2.93,-3.23
1777399194433,1829273,-0.78,-0.53,0.17,-3.48,-8.85,-2.32
1777399194433,1829283,-0.78,-0.53,0.16,-0.37,-11.66,14.34
1777399194433,1829303,-0.79,-0.52,0.19,4.52,-6.29,1.89
1777399194434,1829323,-0.83,-0.49,0.19,4.46,0.85,1.83
1777399194434,1829343,-0.81,-0.49,0.18,5.49,6.10,1.04
1777399194434,1829363,-0.76,-0.52,0.17,7.20,3.91,-0.67
1777399194434,1829373,-0.74,-0.51,0.18,9.40,1.34,0.18
1777399194434,1829383,-0.74,-0.51,0.20,11.29,-1.77,2.01
1777399194435,1829393,-0.74,-0.51,0.21,11.84,-4.58,3.54
1777399194435,1829403,-0.75,-0.50,0.22,11.05,-6.23,3.91
1777399194435,1829413,-0.76,-0.48,0.20,10.01,-6.41,4.46
1777399194436,1829423,-0.78,-0.47,0.21,9.89,-4.27,5.98
1777399194436,1829433,-0.80,-0.47,0.22,10.93,-0.92,7.69
1777399194436,1829443,-0.81,-0.46,0.23,11.54,2.08,9.16
1777399194436,1829453,-0.84,-0.46,0.25,9.89,4.39,8.36
1777399194436,1829463,-0.85,-0.47,0.25,6.65,4.58,5.55
1777399194437,1829473,-0.85,-0.47,0.24,3.30,3.48,1.40
1777399194437,1829483,-0.84,-0.46,0.22,1.22,2.08,-1.83
1777399194437,1829493,-0.83,-0.45,0.22,0.18,1.40,-2.20
1777399194437,1829503,-0.83,-0.45,0.21,-1.34,1.53,-0.85
1777399194438,1829513,-0.83,-0.45,0.20,-2.38,2.56,0.73
1777399194438,1829523,-0.83,-0.45,0.19,-2.01,4.39,2.08
1777399194438,1829533,-0.83,-0.47,0.17,-0.92,6.47,2.87
1777399194438,1829543,-0.82,-0.48,0.17,0.06,8.61,3.05
1777399194438,1829553,-0.83,-0.48,0.17,0.49,10.01,2.99
1777399194439,1829563,-0.83,-0.49,0.18,0.67,9.77,3.05
1777399194439,1829573,-0.83,-0.50,0.18,1.65,8.48,2.75
1777399194439,1829583,-0.83,-0.51,0.20,2.26,6.71,2.69
1777399194439,1829593,-0.84,-0.52,0.21,1.59,4.15,2.32
1777399194439,1829603,-0.85,-0.52,0.21,0.73,1.28,1.22
1777399194439,1829613,-0.86,-0.50,0.20,0.61,-0.18,0.43
1777399194440,1829623,-0.88,-0.49,0.19,1.10,0.98,0.37
1777399194440,1829633,-0.89,-0.48,0.17,2.32,4.58,0.67
1777399194440,1829653,-0.91,-0.47,0.16,6.23,19.59,-0.12
1777399194440,1829673,-0.89,-0.48,0.17,6.59,21.18,-1.22
1777399194440,1829693,-0.88,-0.47,0.18,3.42,12.51,-5.31
1777399194441,1829713,-0.88,-0.47,0.15,-0.92,3.97,-11.84
1777399194441,1829723,-0.87,-0.46,0.13,-2.01,3.17,-13.55
1777399194441,1829733,-0.87,-0.46,0.10,-0.55,5.74,-13.06
1777399194441,1829743,-0.86,-0.45,0.09,2.75,11.60,-11.84
1777399194441,1829753,-0.86,-0.46,0.09,5.68,18.43,-10.74
1777399194442,1829763,-0.85,-0.46,0.10,7.87,24.41,-10.13
1777399194442,1829773,-0.85,-0.45,0.12,9.77,28.38,-9.58
1777399194442,1829783,-0.83,-0.46,0.14,11.05,28.75,-8.97
1777399194442,1829793,-0.83,-0.47,0.17,11.47,25.39,-10.13
1777399194442,1829803,-0.82,-0.47,0.17,10.31,19.10,-12.33
1777399194443,1829813,-0.82,-0.48,0.16,8.06,12.45,-13.98
1777399194443,1829823,-0.81,-0.48,0.13,6.23,7.39,-15.14
1777399194443,1829833,-0.80,-0.48,0.11,5.25,5.19,-15.50
1777399194443,1829843,-0.80,-0.47,0.08,5.13,5.31,-15.01
1777399194443,1829853,-0.80,-0.47,0.05,5.55,7.08,-12.57
1777399194444,1829863,-0.81,-0.46,0.03,6.41,10.07,-8.12
1777399194444,1829873,-0.82,-0.46,0.03,6.77,13.73,-3.91
1777399194444,1829883,-0.83,-0.46,0.04,7.14,15.69,-0.73
1777399194444,1829893,-0.84,-0.46,0.05,7.63,15.81,0.67
1777399194444,1829903,-0.85,-0.46,0.06,7.32,13.98,0.12
1777399194444,1829913,-0.86,-0.46,0.07,5.25,10.01,-1.65
1777399194445,1829923,-0.87,-0.46,0.07,2.87,5.00,-3.36
1777399194445,1829933,-0.89,-0.47,0.06,0.73,0.79,-3.78
1777399194445,1829943,-0.90,-0.48,0.05,-0.98,-2.62,-3.48
1777399194445,1829953,-0.90,-0.48,0.03,-1.46,-3.97,-3.66
1777399194445,1829963,-0.90,-0.47,0.01,-0.18,-3.36,-3.23
1777399194446,1829973,-0.92,-0.46,0.01,1.95,-1.46,14.04
1777399194446,1829993,-0.94,-0.45,0.04,4.88,1.65,-1.89
1777399194446,1830013,-0.94,-0.45,0.06,2.32,0.18,-7.20
1777399194446,1830033,-0.90,-0.46,0.05,-1.71,-2.87,-11.96
1777399194446,1830053,-0.88,-0.46,0.02,-3.78,-1.16,-11.60
1777399194447,1830063,-0.86,-0.46,0.02,-3.05,1.34,-10.56
1777399194447,1830073,-0.84,-0.47,0.01,-2.20,3.30,-9.40
1777399194447,1830083,-0.83,-0.48,0.01,-1.59,3.85,-7.57
1777399194447,1830093,-0.82,-0.47,0.01,-1.22,2.69,-5.74
1777399194447,1830103,-0.82,-0.46,0.01,-1.28,0.31,-4.46
1777399194447,1830113,-0.83,-0.45,0.01,-1.89,-2.69,-3.42
1777399194448,1830123,-0.84,-0.45,0.02,-2.87,-5.68,-2.93
1777399194448,1830133,-0.84,-0.45,0.01,-3.36,-7.93,-4.03
1777399194448,1830143,-0.85,-0.45,-0.00,-3.66,-8.42,-5.25
1777399194448,1830153,-0.85,-0.46,-0.01,-4.21,-6.90,-5.25
1777399194448,1830163,-0.86,-0.45,-0.01,-4.39,-4.15,-4.52
1777399194448,1830173,-0.86,-0.46,-0.01,-3.91,-1.53,-2.62
1777399194449,1830183,-0.87,-0.46,0.00,-3.36,0.31,-1.10
1777399194449,1830193,-0.87,-0.46,0.01,-3.11,0.61,-0.98
1777399194449,1830203,-0.88,-0.46,0.01,-2.87,-0.24,-1.10
1777399194449,1830213,-0.87,-0.46,0.00,-2.44,-1.22,-1.16
1777399194449,1830223,-0.86,-0.47,0.01,-1.46,-2.14,-0.49
1777399194450,1830233,-0.86,-0.47,0.01,-0.55,-2.93,0.43
1777399194450,1830243,-0.86,-0.48,0.02,-0.18,-3.78,0.79
1777399194450,1830253,-0.88,-0.47,0.02,-0.37,-4.64,0.49
1777399194450,1830263,-0.88,-0.47,0.02,-0.61,-4.88,-0.06
1777399194450,1830273,-0.88,-0.48,0.03,-0.61,-4.27,-0.92
1777399194450,1830283,-0.89,-0.48,0.03,-0.31,-3.85,-1.40
1777399194451,1830293,-0.88,-0.48,0.03,0.06,-3.42,-1.46
1777399194451,1830303,-0.88,-0.49,0.03,0.92,-3.11,-1.40
1777399194451,1830313,-0.88,-0.49,0.04,1.71,-3.23,-1.10
1777399194451,1830323,-0.88,-0.49,0.05,1.53,-3.30,-2.08
1777399194451,1830343,-0.87,-0.50,0.05,1.16,-4.52,-4.21
1777399194451,1830363,-0.85,-0.51,0.04,0.49,-5.86,-3.66
1777399194452,1830383,-0.85,-0.51,0.03,0.00,-7.57,-3.48
1777399194452,1830403,-0.85,-0.50,0.03,0.37,-8.06,-2.87
1777399194452,1830413,-0.86,-0.50,0.03,0.98,-8.06,-2.01
1777399194452,1830423,-0.86,-0.50,0.03,0.98,-7.87,-1.22
1777399194452,1830433,-0.87,-0.49,0.03,0.85,-7.75,-2.08
1777399194452,1830443,-0.88,-0.48,0.03,0.49,-7.63,-3.17
1777399194453,1830453,-0.88,-0.48,0.02,0.31,-7.08,-3.42
1777399194453,1830463,-0.89,-0.48,0.02,0.85,-5.74,-3.85
1777399194453,1830473,-0.88,-0.48,0.02,1.59,-4.39,-4.27
1777399194453,1830483,-0.89,-0.49,0.03,2.20,-3.85,-4.33
1777399194453,1830493,-0.89,-0.48,0.04,2.38,-4.46,-4.33
1777399194453,1830503,-0.88,-0.48,0.04,2.38,-5.68,-4.46
1777399194454,1830513,-0.89,-0.47,0.03,2.75,-6.47,-5.07
1777399194454,1830523,-0.88,-0.47,0.03,3.23,-6.59,-5.74
1777399194454,1830533,-0.88,-0.47,0.03,3.48,-6.10,-7.08
1777399194454,1830543,-0.87,-0.47,0.03,3.78,-5.55,-8.61
1777399194454,1830553,-0.86,-0.47,0.03,3.72,-5.00,-9.28
1777399194455,1830563,-0.86,-0.47,0.04,3.36,-5.07,-9.77
1777399194455,1830573,-0.85,-0.47,0.03,3.48,-5.80,-9.95
1777399194455,1830583,-0.84,-0.47,0.03,3.66,-6.47,-9.40
1777399194455,1830593,-0.84,-0.47,0.03,4.21,-6.90,-8.54
1777399194455,1830603,-0.84,-0.47,0.03,4.88,-6.84,-7.93
1777399194455,1830613,-0.83,-0.47,0.03,5.07,-6.53,-6.96
1777399194456,1830623,-0.83,-0.47,0.04,4.94,-5.98,-6.04
1777399194456,1830633,-0.83,-0.48,0.04,4.15,-5.55,-6.04
1777399194456,1830643,-0.84,-0.47,0.04,3.36,-5.55,-6.23
1777399194456,1830653,-0.84,-0.47,0.03,2.99,-5.68,-5.68
1777399194456,1830663,-0.85,-0.47,0.03,3.30,-5.37,-4.94
1777399194456,1830683,-0.87,-0.47,0.05,4.03,-3.72,-3.85
1777399194457,1830703,-0.87,-0.46,0.06,3.05,-4.64,-5.07
1777399194457,1830723,-0.86,-0.46,0.06,3.60,-4.27,-5.25
1777399194457,1830743,-0.87,-0.46,0.07,3.05,-3.66,-5.68
1777399194457,1830753,-0.87,-0.46,0.07,3.05,-3.85,-5.68
1777399194457,1830763,-0.86,-0.46,0.06,3.30,-3.91,-5.43
1777399194457,1830773,-0.86,-0.46,0.07,3.48,-3.78,-5.25
1777399194457,1830783,-0.86,-0.47,0.08,3.36,-3.91,-5.62
1777399194458,1830793,-0.85,-0.47,0.08,3.42,-4.27,-5.92
1777399194458,1830803,-0.85,-0.48,0.08,3.23,-4.82,-5.98
1777399194458,1830813,-0.84,-0.48,0.08,2.81,-5.49,-5.68
1777399194458,1830823,-0.83,-0.48,0.08,2.62,-6.35,-5.25
1777399194458,1830833,-0.83,-0.49,0.08,2.26,-7.39,-4.52
1777399194458,1830843,-0.82,-0.49,0.08,1.71,-8.12,-3.78
1777399194458,1830853,-0.82,-0.48,0.07,1.28,-8.73,-2.81
1777399194459,1830863,-0.83,-0.48,0.08,0.92,-8.61,-2.20
1777399194459,1830873,-0.84,-0.48,0.07,0.92,-7.93,-2.08
1777399194459,1830883,-0.84,-0.48,0.06,0.73,-7.26,-2.14
1777399194459,1830893,-0.85,-0.48,0.06,0.06,-6.71,-2.32
1777399194459,1830903,-0.85,-0.48,0.05,0.06,-6.41,-2.50
1777399194459,1830913,-0.85,-0.48,0.05,0.43,-6.04,-2.44
1777399194459,1830923,-0.85,-0.48,0.05,0.67,-5.92,-2.38
1777399194460,1830933,-0.86,-0.48,0.06,0.79,-6.04,-2.44
1777399194460,1830943,-0.86,-0.48,0.06,0.67,-6.96,-2.20
1777399194460,1830953,-0.86,-0.47,0.05,0.12,-7.93,-2.01
1777399194460,1830963,-0.86,-0.47,0.05,-0.61,-8.61,-2.44
1777399194460,1830973,-0.86,-0.47,0.04,-0.73,-8.48,-2.99
1777399194460,1830983,-0.86,-0.47,0.03,-0.06,-7.75,-3.54
1777399194461,1830993,-0.85,-0.47,0.03,0.73,-6.90,-3.78
1777399194461,1831003,-0.85,-0.48,0.03,1.34,-6.10,-3.30
1777399194461,1831013,-0.85,-0.48,0.04,1.16,-5.25,-2.99
1777399194461,1831033,-0.86,-0.47,0.04,1.34,-3.85,-3.48
1777399194461,1831053,-0.86,-0.47,0.03,2.32,-3.91,-3.36
1777399194461,1831073,-0.86,-0.47,0.02,2.62,-5.37,-3.66
1777399194461,1831093,-0.88,-0.46,0.02,3.48,-5.98,-3.11
1777399194462,1831103,-0.88,-0.46,0.03,4.82,-5.74,-2.38
1777399194462,1831113,-0.89,-0.47,0.04,5.49,-5.55,-2.69
1777399194462,1831123,-0.89,-0.47,0.05,4.82,-5.86,-3.36
1777399194462,1831133,-0.88,-0.47,0.05,3.91,-6.16,-4.27
1777399194462,1831143,-0.88,-0.46,0.05,3.05,-5.98,-5.13
1777399194462,1831153,-0.88,-0.46,0.06,2.44,-5.37,-5.62
1777399194463,1831163,-0.87,-0.45,0.07,2.01,-4.58,-6.16
1777399194463,1831173,-0.87,-0.45,0.07,1.71,-4.27,-5.98
1777399194463,1831183,-0.86,-0.45,0.07,1.40,-4.33,-5.19
1777399194463,1831193,-0.86,-0.44,0.07,1.65,-4.58,-4.33
1777399194463,1831203,-0.85,-0.45,0.06,2.20,-4.46,-3.66
1777399194463,1831213,-0.85,-0.45,0.07,2.44,-4.27,-2.99
1777399194463,1831223,-0.84,-0.45,0.07,2.20,-4.64,-2.75
1777399194464,1831233,-0.84,-0.46,0.06,1.71,-5.80,-2.87
1777399194464,1831243,-0.84,-0.46,0.05,1.34,-6.84,-2.81
1777399194464,1831253,-0.84,-0.46,0.05,1.34,-7.45,-2.62
1777399194464,1831263,-0.85,-0.46,0.05,1.34,-8.00,-1.83
1777399194464,1831273,-0.86,-0.46,0.05,1.10,-8.24,-0.79
1777399194464,1831283,-0.87,-0.46,0.04,1.34,-8.42,-0.12
1777399194464,1831293,-0.87,-0.45,0.04,1.65,-8.06,-0.24
1777399194465,1831303,-0.88,-0.45,0.04,1.83,-7.39,-0.55
1777399194465,1831313,-0.89,-0.45,0.05,1.83,-6.90,-0.79
1777399194465,1831323,-0.89,-0.46,0.05,1.95,-6.59,-1.34
1777399194465,1831333,-0.89,-0.47,0.05,2.01,-6.84,-2.50
1777399194465,1831343,-0.89,-0.47,0.05,1.95,-7.57,-3.23
1777399194465,1831353,-0.89,-0.47,0.05,1.77,-8.12,-3.30
1777399194465,1831373,-0.89,-0.46,0.06,2.93,-8.67,-3.05
1777399194466,1831393,-0.89,-0.46,0.07,1.59,-9.34,-5.80
1777399194466,1831413,-0.87,-0.46,0.06,1.65,-6.65,-5.80
1777399194466,1831433,-0.86,-0.47,0.07,1.77,-4.58,-5.43
1777399194466,1831443,-0.87,-0.48,0.06,1.59,-5.49,-4.76
1777399194466,1831453,-0.87,-0.49,0.07,0.43,-6.29,-4.64
1777399194466,1831463,-0.88,-0.43,0.08,0.98,-8.18,-4.70
1777399194466,1831473,-0.89,-0.45,0.09,1.89,-9.83,-3.30
1777399194467,1831483,-0.89,-0.45,0.09,2.75,-11.35,-3.72
1777399194467,1831493,-0.89,-0.43,0.11,1.95,-12.63,-5.07
1777399194467,1831503,-0.89,-0.44,0.10,1.22,-13.85,-5.68
1777399194467,1831513,-0.89,-0.43,0.12,0.85,-14.16,-6.41
1777399194467,1831523,-0.89,-0.42,0.12,-0.12,-14.47,-6.84
1777399194467,1831533,-0.88,-0.42,0.12,-1.28,-14.40,-7.32
1777399194467,1831543,-0.88,-0.42,0.12,-2.20,-13.24,-8.36
1777399194468,1831553,-0.87,-0.42,0.11,-2.93,-11.17,-9.03
1777399194468,1831563,-0.85,-0.43,0.11,-3.54,-8.79,-8.73
1777399194468,1831573,-0.84,-0.47,0.09,-4.39,-6.53,-8.61
1777399194468,1831583,-0.81,-0.41,0.09,-3.91,-5.19,-8.85
1777399194468,1831593,-0.82,-0.45,0.08,-4.64,-4.52,-6.53
1777399194468,1831603,-0.81,-0.46,0.07,-4.82,-5.07,-5.43
1777399194469,1831613,-0.80,-0.45,0.04,-4.33,-5.62,-4.70
1777399194469,1831623,-0.79,-0.47,0.01,-3.78,-5.55,-3.91
1777399194469,1831633,-0.80,-0.48,0.00,-3.11,-4.58,-3.48
1777399194469,1831643,-0.80,-0.48,-0.01,-2.38,-3.85,-2.38
1777399194469,1831653,-0.81,-0.48,-0.02,-1.46,-3.30,-0.85
1777399194469,1831663,-0.82,-0.48,-0.03,-0.61,-2.38,0.61
1777399194469,1831673,-0.83,-0.49,-0.03,0.24,-1.22,1.34
1777399194470,1831683,-0.86,-0.48,-0.03,0.98,-0.12,0.92
1777399194470,1831693,-0.85,-0.49,-0.04,2.50,1.53,0.73
1777399194470,1831703,-0.86,-0.48,-0.02,4.76,5.00,0.00
1777399194470,1831723,-0.87,-0.49,0.00,4.58,3.91,-0.92
1777399194470,1831743,-0.89,-0.48,-0.00,5.25,0.18,-1.40
1777399194470,1831763,-0.91,-0.47,0.02,7.26,-1.71,-3.05
1777399194470,1831783,-0.92,-0.46,0.05,8.30,-0.85,-4.88
1777399194471,1831793,-0.92,-0.46,0.07,8.42,-0.98,-5.19
1777399194471,1831803,-0.92,-0.45,0.08,8.61,-2.08,-5.43
1777399194471,1831813,-0.92,-0.45,0.09,8.73,-3.97,-5.98
1777399194471,1831823,-0.92,-0.45,0.10,8.30,-6.04,-6.59
1777399194471,1831833,-0.93,-0.44,0.11,7.26,-7.87,-7.81
1777399194471,1831843,-0.92,-0.44,0.12,6.47,-9.09,-9.03
1777399194471,1831853,-0.91,-0.44,0.12,6.16,-9.95,-9.70
1777399194471,1831863,-0.90,-0.44,0.11,5.86,-10.25,-10.01
1777399194472,1831873,-0.89,-0.44,0.11,5.80,-10.01,-10.07
1777399194472,1831883,-0.88,-0.44,0.10,6.04,-9.46,-9.46
1777399194472,1831893,-0.87,-0.44,0.10,6.29,-8.91,-8.61
1777399194472,1831903,-0.87,-0.44,0.10,6.29,-8.48,-7.69
1777399194472,1831913,-0.86,-0.44,0.10,6.10,-8.42,-6.90
1777399194472,1831923,-0.86,-0.45,0.10,5.80,-8.54,-7.14
1777399194472,1831933,-0.85,-0.45,0.09,5.19,-8.91,-7.51
1777399194473,1831943,-0.85,-0.46,0.09,4.15,-9.52,-7.75
1777399194473,1831953,-0.84,-0.46,0.09,2.81,-10.44,-8.36
1777399194473,1831963,-0.83,-0.46,0.08,1.95,-11.72,-8.42
1777399194473,1831973,-0.83,-0.46,0.07,1.28,-12.70,-7.14
1777399194473,1831983,-0.83,-0.45,0.07,0.98,-12.63,-5.55
1777399194473,1831993,-0.83,-0.44,0.07,1.04,-11.66,-4.52
1777399194473,1832003,-0.83,-0.44,0.08,1.22,-10.25,-3.85
1777399194474,1832013,-0.83,-0.44,0.08,1.10,-9.16,-3.42
1777399194474,1832023,-0.83,-0.44,0.09,0.37,-8.42,-3.11
1777399194474,1832033,-0.82,-0.44,0.09,-0.31,-8.48,-2.93
1777399194474,1832043,-0.82,-0.45,0.09,-0.98,-8.91,-2.38
1777399194474,1832053,-0.82,-0.45,0.10,-1.89,-9.52,-0.24
1777399194474,1832073,-0.83,-0.45,0.09,-2.62,-11.47,1.46
1777399194474,1832093,-0.85,-0.44,0.09,-2.38,-9.64,3.48
1777399194474,1832113,-0.87,-0.44,0.08,-2.26,-6.29,3.36
1777399194475,1832123,-0.86,-0.44,0.07,-2.32,-5.19,2.50
1777399194475,1832133,-0.87,-0.44,0.06,-2.62,-5.13,1.95
1777399194475,1832143,-0.87,-0.45,0.05,-2.38,-5.80,1.95
1777399194475,1832153,-0.87,-0.45,0.04,-0.79,-6.71,1.95
1777399194475,1832163,-0.86,-0.46,0.04,1.10,-7.51,2.32
1777399194475,1832173,-0.86,-0.48,0.03,2.26,-8.18,3.05
1777399194475,1832183,-0.86,-0.48,0.03,2.99,-8.42,3.60
1777399194475,1832193,-0.86,-0.48,0.03,3.42,-7.81,3.17
1777399194476,1832203,-0.86,-0.48,0.04,3.23,-6.96,2.08
1777399194476,1832213,-0.86,-0.48,0.04,3.11,-6.59,0.98
1777399194476,1832223,-0.87,-0.48,0.03,2.99,-6.90,0.24
1777399194476,1832233,-0.86,-0.47,0.03,3.36,-7.69,0.12
1777399194476,1832243,-0.88,-0.47,0.03,5.07,-8.18,1.16
1777399194476,1832253,-0.88,-0.47,0.04,7.02,-8.36,2.01
1777399194476,1832263,-0.89,-0.46,0.05,8.06,-8.18,1.89
1777399194477,1832273,-0.89,-0.46,0.07,7.93,-7.75,1.77
1777399194477,1832283,-0.90,-0.45,0.08,6.90,-7.45,1.77
1777399194477,1832293,-0.91,-0.44,0.08,5.43,-7.39,1.77
1777399194477,1832303,-0.92,-0.43,0.09,3.78,-7.32,1.16
1777399194477,1832313,-0.93,-0.41,0.10,2.20,-7.32,0.67
1777399194477,1832323,-0.94,-0.41,0.10,0.61,-7.02,-0.12
1777399194477,1832333,-0.95,-0.40,0.09,-0.61,-6.41,-1.59
1777399194477,1832343,-0.94,-0.40,0.09,-0.37,-4.94,-2.75
1777399194478,1832353,-0.94,-0.40,0.09,1.46,-2.81,-3.72
1777399194478,1832363,-0.93,-0.40,0.10,3.60,-1.16,-4.94
1777399194478,1832373,-0.91,-0.40,0.11,4.09,-0.85,-6.04
1777399194478,1832383,-0.90,-0.40,0.12,3.36,-2.20,-7.14
1777399194478,1832393,-0.89,-0.40,0.12,2.44,-4.52,-9.58
1777399194478,1832413,-0.85,-0.41,0.11,3.36,-9.22,-10.50
1777399194478,1832433,-0.84,-0.42,0.13,1.46,-11.41,-9.52
1777399194478,1832453,-0.86,-0.41,0.12,1.59,-11.84,-6.29
1777399194479,1832473,-0.86,-0.42,0.12,3.23,-8.06,-4.94
1777399194479,1832483,-0.85,-0.42,0.12,3.48,-5.55,-4.94
1777399194479,1832493,-0.84,-0.43,0.12,3.05,-3.91,-4.94
1777399194479,1832503,-0.83,-0.43,0.12,2.32,-3.54,-4.39
1777399194479,1832513,-0.83,-0.44,0.12,1.59,-4.64,-3.11
1777399194479,1832523,-0.83,-0.44,0.11,1.22,-6.29,-2.01
1777399194479,1832533,-0.83,-0.44,0.11,1.04,-7.57,-2.20
1777399194479,1832543,-0.82,-0.44,0.11,1.04,-8.00,-2.75
1777399194479,1832553,-0.82,-0.44,0.10,1.04,-7.93,-2.75
1777399194480,1832563,-0.82,-0.44,0.10,0.67,-7.81,-2.32
1777399194480,1832573,-0.83,-0.44,0.09,0.00,-8.24,-0.67
1777399194480,1832583,-0.84,-0.44,0.09,-0.98,-9.03,1.65
1777399194480,1832593,-0.85,-0.43,0.08,-1.10,-9.28,3.05
1777399194480,1832603,-0.87,-0.42,0.08,-0.06,-8.97,4.03
1777399194480,1832613,-0.88,-0.42,0.08,1.83,-8.79,4.88
1777399194480,1832623,-0.90,-0.41,0.09,3.60,-8.97,5.49
1777399194480,1832633,-0.91,-0.41,0.09,4.76,-9.16,5.92
1777399194481,1832643,-0.91,-0.41,0.10,5.07,-8.97,5.43
1777399194481,1832653,-0.92,-0.41,0.10,4.88,-8.30,3.66
1777399194481,1832663,-0.92,-0.40,0.10,3.66,-8.18,1.59
1777399194481,1832673,-0.93,-0.39,0.09,2.44,-8.67,-0.24
1777399194481,1832683,-0.93,-0.37,0.08,2.81,-9.03,-1.10
1777399194481,1832693,-0.93,-0.37,0.08,3.97,-9.28,-0.85
1777399194481,1832703,-0.93,-0.37,0.09,5.62,-9.34,-0.55
1777399194481,1832713,-0.93,-0.38,0.09,7.20,-9.09,-1.16
1777399194481,1832723,-0.92,-0.39,0.10,7.81,-9.28,-2.69
1777399194482,1832733,-0.91,-0.39,0.10,7.39,-9.58,-5.00
1777399194482,1832743,-0.91,-0.38,0.11,6.71,-9.70,-9.09
1777399194482,1832763,-0.92,-0.36,0.13,0.92,-9.77,-11.05
1777399194483,1832783,-0.88,-0.36,0.10,-1.65,-5.92,-12.33
1777399194503,1832803,-0.88,-0.35,0.04,-1.10,0.67,-11.60
1777399194513,1832813,-0.88,-0.36,0.04,0.85,5.80,-8.97
1777399194523,1832823,-0.88,-0.39,0.05,3.48,11.11,-6.96
1777399194533,1832833,-0.90,-0.41,0.10,4.09,14.10,-7.14
1777399194543,1832843,-0.90,-0.42,0.11,3.23,13.06,-8.42
1777399194553,1832853,-0.92,-0.41,0.12,2.20,9.83,-8.36
1777399194563,1832863,-0.96,-0.41,0.13,-0.55,5.25,-7.39
1777399194573,1832873,-0.99,-0.41,0.12,-3.78,-0.61,-7.51
1777399194583,1832883,-1.02,-0.40,0.09,-4.52,-5.49,-9.03
1777399194593,1832893,-1.06,-0.39,0.07,-4.58,-6.96,-11.84
1777399194603,1832903,-1.08,-0.38,0.07,-7.39,-6.29,-17.03
1777399194613,1832913,-1.10,-0.35,0.05,-11.11,-7.32,-24.05
1777399194623,1832923,-1.12,-0.33,0.01,-15.38,-11.35,-30.46
1777399194633,1832933,-1.13,-0.32,-0.03,-20.08,-18.86,-35.95
1777399194643,1832943,-1.12,-0.30,-0.12,-22.16,-28.75,-40.34
1777399194653,1832953,-1.08,-0.33,-0.16,-19.04,-36.07,-44.68
1777399194663,1832963,-1.01,-0.38,-0.16,-9.09,-40.16,-50.29
1777399194673,1832973,-0.96,-0.46,-0.08,3.23,-43.76,-56.82
1777399194683,1832983,-0.86,-0.62,0.01,16.42,-51.15,-60.42
1777399194700,1832993,-0.73,-0.78,0.10,32.78,-60.18,-61.65
1777399194703,1833003,-0.61,-1.13,0.32,51.45,-68.30,-58.11
1777399194713,1833013,-0.30,-1.90,0.89,76.42,-79.10,-52.00
1777399194723,1833023,0.10,-3.06,1.67,115.11,-106.99,-59.81
1777399194733,1833033,0.67,-4.00,2.59,153.99,-157.59,-83.01
1777399194743,1833043,1.60,-4.00,3.53,156.92,-207.89,-97.53
1777399194753,1833053,1.99,-4.00,3.64,80.69,-226.62,-62.26
1777399194763,1833063,2.02,-4.00,3.21,-45.29,-183.35,24.54
1777399194773,1833073,1.95,-4.00,2.41,-146.06,-87.77,138.37
1777399194784,1833083,1.99,-4.00,1.63,-182.13,27.16,409.00
1777399194803,1833103,2.41,-2.66,1.57,-169.49,212.34,679.08
1777399194823,1833123,2.44,2.15,0.77,-319.89,8.91,664.12
1777399194843,1833143,4.00,4.00,0.45,-297.30,144.10,532.78
1777399194863,1833163,1.78,4.00,-0.79,-354.31,22.03,531.68
1777399194875,1833173,-1.46,4.00,-0.70,-341.67,-79.28,506.53
1777399194883,1833183,-4.00,4.00,-0.46,-276.31,-142.15,437.26
1777399194893,1833193,-4.00,4.00,-2.19,-149.90,-175.11,309.14
1777399194903,1833203,-2.54,2.20,-4.00,-19.53,-56.03,41.69
1777399194913,1833213,-0.28,2.34,-2.75,43.58,134.52,-278.38
1777399194923,1833223,1.19,2.61,-1.00,113.77,164.67,-422.12
1777399194933,1833233,1.40,1.45,-0.05,190.00,46.20,-373.17
1777399194943,1833243,1.22,1.22,1.06,227.05,-85.75,-323.49
1777399194953,1833253,0.94,1.13,1.28,223.39,-180.42,-295.29
1777399194963,1833263,0.63,1.08,1.04,212.04,-199.40,-266.48
1777399194973,1833273,0.36,0.98,0.79,217.77,-142.21,-241.58
1777399194983,1833283,0.10,0.99,0.76,239.62,-38.39,-239.20
1777399194993,1833293,-0.03,0.95,0.90,248.96,68.66,-251.89
1777399195003,1833303,-0.10,0.86,1.06,219.85,140.50,-264.89
1777399195013,1833313,-0.18,0.82,1.07,163.94,154.30,-271.36
1777399195023,1833323,-0.27,0.86,0.91,109.19,119.81,-267.82
1777399195033,1833333,-0.36,0.89,0.70,76.05,65.49,-257.14
1777399195043,1833343,-0.48,0.81,0.52,68.12,14.65,-243.41
1777399195053,1833353,-0.56,0.66,0.45,79.90,-19.78,-229.06
1777399195063,1833363,-0.65,0.53,0.45,98.33,-36.19,-215.82
1777399195073,1833373,-0.74,0.40,0.51,110.60,-43.27,-202.76
1777399195083,1833383,-0.72,0.23,0.69,112.24,-47.24,-191.89
1777399195093,1833393,-0.65,-0.01,0.86,100.65,-51.88,-181.82
1777399195103,1833403,-0.68,-0.26,0.84,81.91,-62.13,-169.07
1777399195113,1833413,-0.64,-0.52,0.72,65.55,-69.95,-155.64
1777399195123,1833423,-0.54,-0.76,0.59,57.98,-66.65,-146.42
1777399195133,1833433,-0.47,-0.97,0.44,56.88,-18.86,-132.75
1777399195153,1833453,-0.48,-1.13,0.51,50.11,4.88,-120.61
1777399195173,1833473,-0.63,-1.15,0.59,55.18,-7.26,-101.99
1777399195193,1833493,-0.72,-1.18,0.65,37.78,-22.58,-68.30
1777399195213,1833513,-0.78,-1.28,0.45,-7.39,-11.05,-41.75
1777399195223,1833523,-0.73,-1.25,0.39,-12.45,9.52,-34.30
1777399195233,1833533,-0.69,-1.20,0.38,1.34,31.56,-27.28
1777399195243,1833543,-0.67,-1.15,0.40,22.40,46.57,-19.10
1777399195253,1833553,-0.63,-1.12,0.46,40.53,51.57,-10.31
1777399195263,1833563,-0.62,-1.09,0.52,51.57,46.33,-3.60
1777399195273,1833573,-0.64,-1.06,0.59,54.99,30.58,0.98
1777399195283,1833583,-0.68,-1.01,0.68,51.82,5.68,3.78
1777399195293,1833593,-0.76,-0.95,0.71,43.76,-26.31,4.27
1777399195303,1833603,-0.84,-0.88,0.70,31.25,-56.58,1.59
1777399195313,1833613,-0.92,-0.82,0.64,16.48,-75.32,-4.09
1777399195323,1833623,-0.92,-0.75,0.52,4.03,-77.58,-10.44
1777399195333,1833633,-0.89,-0.68,0.37,-3.72,-62.99,-13.92
1777399195343,1833643,-0.87,-0.62,0.25,-4.39,-35.03,-12.02
1777399195353,1833653,-0.84,-0.58,0.18,1.34,-2.26,-5.68
1777399195363,1833663,-0.84,-0.53,0.18,9.46,27.47,3.78
1777399195373,1833673,-0.84,-0.49,0.23,16.11,48.22,13.98
1777399195383,1833683,-0.82,-0.48,0.30,21.24,57.31,21.36
1777399195393,1833693,-0.81,-0.47,0.37,23.38,53.41,23.38
1777399195403,1833703,-0.82,-0.45,0.42,16.78,36.19,19.65
1777399195413,1833713,-0.86,-0.44,0.41,2.20,6.96,10.25
1777399195424,1833723,-0.90,-0.39,0.33,-12.33,-25.21,-1.77
1777399195433,1833733,-0.92,-0.35,0.24,-19.96,-46.94,-12.76
