host_time_ms,arduino_time_ms,ax,ay,az,gx,gy,gz
1777399178989,1808633,-0.35,-1.07,-0.76,-12.76,-28.26,-31.43
1777399178990,1808643,-0.42,-1.01,-0.89,-37.35,-34.67,2.87
1777399178990,1808653,-0.55,-0.94,-0.99,-39.25,-30.88,29.11
1777399178990,1808663,-0.67,-0.82,-1.00,-20.81,-24.96,39.12
1777399178990,1808673,-0.74,-0.77,-0.94,9.22,-22.03,34.85
1777399178991,1808683,-0.79,-0.70,-0.76,38.33,-22.40,20.14
1777399178991,1808693,-0.77,-0.60,-0.57,54.32,-29.24,2.20
1777399178991,1808703,-0.73,-0.53,-0.44,54.50,-39.61,-10.01
1777399178992,1808713,-0.67,-0.50,-0.37,43.70,-47.85,-12.27
1777399178992,1808723,-0.65,-0.50,-0.34,26.73,-51.70,-5.74
1777399178992,1808733,-0.68,-0.51,-0.34,8.85,-48.89,8.42
1777399178993,1808743,-0.71,-0.50,-0.37,-7.08,-40.89,24.23
1777399178993,1808753,-0.79,-0.47,-0.40,-17.15,-30.03,35.16
1777399178993,1808763,-0.86,-0.44,-0.43,-19.90,-20.02,37.05
1777399178994,1808773,-0.87,-0.44,-0.46,-16.66,-13.73,28.63
1777399178994,1808783,-0.86,-0.45,-0.49,-7.20,-10.93,12.51
1777399178994,1808793,-0.83,-0.46,-0.47,7.93,-9.22,-3.91
1777399178995,1808803,-0.78,-0.46,-0.41,21.91,-5.92,-14.95
1777399178995,1808813,-0.72,-0.45,-0.36,27.47,-2.93,-19.35
1777399178995,1808823,-0.67,-0.48,-0.33,24.90,-0.37,-16.85
1777399178996,1808833,-0.64,-0.51,-0.33,17.33,3.05,-10.38
1777399178996,1808843,-0.61,-0.53,-0.33,6.59,6.29,-2.87
1777399178996,1808853,-0.60,-0.54,-0.35,-5.07,7.51,4.64
1777399178996,1808863,-0.65,-0.54,-0.37,-14.47,6.59,12.33
1777399178996,1808873,-0.69,-0.56,-0.41,-18.92,3.36,16.91
1777399178997,1808883,-0.69,-0.54,-0.44,-18.55,-1.16,15.81
1777399178997,1808893,-0.70,-0.51,-0.49,-15.50,-3.85,11.29
1777399178997,1808903,-0.71,-0.54,-0.57,-8.97,-2.14,7.02
1777399178997,1808913,-0.69,-0.56,-0.59,2.14,5.98,-8.54
1777399178998,1808933,-0.70,-0.52,-0.52,17.58,30.64,-6.90
1777399178998,1808953,-0.73,-0.56,-0.40,5.43,23.01,5.80
1777399178998,1808973,-0.75,-0.56,-0.38,-2.62,0.24,18.55
1777399178998,1808993,-0.79,-0.46,-0.45,-5.25,-18.07,22.71
1777399178999,1809003,-0.79,-0.45,-0.50,-3.85,-19.53,19.35
1777399178999,1809013,-0.79,-0.45,-0.52,-0.18,-14.71,11.78
1777399178999,1809023,-0.78,-0.47,-0.52,5.55,-5.86,3.78
1777399178999,1809033,-0.77,-0.48,-0.50,12.45,3.48,-1.10
1777399179000,1809043,-0.78,-0.47,-0.45,17.58,11.29,-3.30
1777399179000,1809053,-0.79,-0.46,-0.40,17.46,13.43,-3.17
1777399179000,1809063,-0.78,-0.47,-0.36,12.94,8.97,-0.73
1777399179000,1809073,-0.75,-0.49,-0.36,6.90,-0.37,1.46
1777399179000,1809083,-0.73,-0.50,-0.37,2.38,-10.13,3.72
1777399179001,1809093,-0.71,-0.52,-0.37,-0.12,-16.91,7.93
1777399179001,1809103,-0.70,-0.52,-0.38,-1.28,-20.94,12.57
1777399179001,1809113,-0.72,-0.52,-0.40,-0.61,-21.61,16.11
1777399179001,1809123,-0.73,-0.50,-0.43,2.69,-18.55,16.24
1777399179002,1809133,-0.73,-0.46,-0.46,6.84,-13.37,12.15
1777399179002,1809143,-0.73,-0.46,-0.47,10.13,-6.71,7.08
1777399179002,1809153,-0.74,-0.52,-0.59,14.77,0.43,1.16
1777399179002,1809163,-0.76,-0.48,-0.40,19.04,8.85,-8.36
1777399179003,1809173,-0.79,-0.48,-0.41,29.72,7.51,-15.38
1777399179003,1809183,-0.71,-0.51,-0.52,32.41,-0.43,-20.26
1777399179003,1809193,-0.72,-0.49,-0.32,24.23,-3.17,-26.00
1777399179003,1809203,-0.66,-0.58,-0.46,25.39,-8.12,-23.86
1777399179004,1809213,-0.63,-0.47,-0.20,21.91,-13.00,-21.12
1777399179004,1809223,-0.62,-0.51,-0.42,25.02,-27.59,-7.26
1777399179004,1809233,-0.59,-0.37,-0.23,9.95,-29.91,4.33
1777399179004,1809243,-0.81,-0.37,-0.34,-12.82,-31.43,15.69
1777399179005,1809253,-0.87,-0.60,-0.36,-20.63,-37.35,26.00
1777399179005,1809263,-0.84,-0.63,-0.35,-17.21,-59.69,13.18
1777399179005,1809283,-0.82,-0.65,-0.39,12.51,-55.91,1.34
1777399179005,1809303,-0.78,-0.63,-0.62,33.02,-31.56,-20.69
1777399179005,1809323,-0.77,-0.50,-0.45,62.81,9.34,-42.60
1777399179006,1809333,-0.80,-0.43,-0.37,71.04,21.36,-49.07
1777399179006,1809343,-0.78,-0.38,-0.33,71.11,22.95,-47.55
1777399179006,1809353,-0.76,-0.29,-0.28,64.45,17.40,-43.40
1777399179006,1809363,-0.70,-0.25,-0.34,54.20,8.54,-34.91
1777399179006,1809373,-0.65,-0.21,-0.33,39.00,2.38,-24.05
1777399179007,1809383,-0.63,-0.24,-0.30,19.65,-0.73,-9.28
1777399179007,1809393,-0.60,0.15,-0.74,5.07,-1.46,8.30
1777399179007,1809403,-0.73,-0.46,-1.00,36.07,26.37,51.51
1777399179007,1809413,-0.80,-0.84,-0.20,34.61,61.46,66.59
1777399179007,1809423,-0.84,-0.64,-0.19,36.74,51.94,33.45
1777399179008,1809433,-0.82,-0.59,-0.15,44.74,28.81,16.97
1777399179008,1809443,-0.84,-0.55,-0.29,39.86,-5.25,1.10
1777399179008,1809453,-0.82,-0.47,-0.42,37.41,-26.37,-10.62
1777399179008,1809463,-0.69,-0.38,-0.34,34.85,-31.01,-12.45
1777399179008,1809473,-0.66,-0.38,-0.18,22.34,-32.71,-4.27
1777399179009,1809483,-0.69,-0.45,-0.16,7.26,-33.81,7.93
1777399179009,1809493,-0.69,-0.51,-0.19,-2.81,-34.30,17.21
1777399179009,1809503,-0.66,-0.54,-0.45,-12.27,-32.53,21.73
1777399179009,1809513,-0.76,-0.55,-0.66,-25.94,-13.61,20.02
1777399179009,1809523,-0.94,-0.80,-0.83,-3.42,16.72,16.48
1777399179010,1809533,-0.88,-0.63,-0.45,37.29,35.40,3.23
1777399179010,1809543,-0.78,-0.37,-0.41,49.99,32.41,-13.18
1777399179010,1809553,-0.81,-0.37,-0.41,27.71,25.94,-11.78
1777399179010,1809563,-0.79,-0.47,-0.32,9.83,21.24,-7.26
1777399179010,1809573,-0.77,-0.55,-0.36,13.37,11.41,-4.27
1777399179011,1809583,-0.75,-0.63,-0.29,22.03,0.55,-1.34
1777399179011,1809593,-0.73,-0.67,-0.30,30.09,-6.59,-2.44
1777399179011,1809603,-0.69,-0.63,-0.31,31.01,-3.97,-5.68
1777399179011,1809623,-0.74,-0.73,-0.25,21.79,16.85,-28.99
1777399179011,1809643,-0.66,-0.52,-0.36,17.27,22.03,-40.59
1777399179012,1809663,-0.76,-0.64,-0.32,1.34,23.99,-36.99
1777399179012,1809683,-0.76,-0.64,-0.33,-1.46,0.79,-19.17
1777399179012,1809693,-0.76,-0.62,-0.33,-3.66,-8.73,-11.11
1777399179012,1809703,-0.75,-0.63,-0.31,-8.67,-12.70,-3.48
1777399179012,1809713,-0.80,-0.62,-0.26,-12.21,-10.93,2.87
1777399179013,1809723,-0.73,-0.84,-0.35,-42.24,-52.00,1.77
1777399179013,1809733,-0.73,-0.69,-0.17,-38.94,-92.65,-5.55
1777399179013,1809743,-0.73,-0.74,-0.35,-31.74,-73.36,-2.50
1777399179013,1809753,-0.73,-0.75,-0.29,-15.87,-38.39,10.31
1777399179013,1809763,-0.83,-0.56,-0.29,14.28,38.88,12.08
1777399179014,1809773,-0.85,-0.60,-0.31,21.67,92.22,14.04
1777399179014,1809783,-0.81,-0.62,-0.29,19.29,103.09,14.34
1777399179014,1809793,-0.80,-0.63,-0.32,19.04,87.89,14.95
1777399179014,1809803,-0.75,-0.61,-0.27,15.44,61.65,20.57
1777399179014,1809813,-0.73,-0.60,-0.34,6.10,32.90,30.09
1777399179014,1809823,-0.71,-0.58,-0.40,0.92,15.01,41.93
1777399179015,1809833,-0.67,-0.55,-0.44,0.43,8.97,49.32
1777399179015,1809843,-0.67,-0.52,-0.46,0.00,12.94,52.00
1777399179015,1809853,-0.73,-0.49,-0.44,-2.50,17.76,51.57
1777399179015,1809863,-0.79,-0.47,-0.40,-8.61,18.62,48.10
1777399179015,1809873,-0.80,-0.47,-0.37,-15.69,17.64,41.44
1777399179016,1809883,-0.78,-0.47,-0.38,-19.47,18.74,35.83
1777399179016,1809893,-0.77,-0.46,-0.40,-19.84,23.62,33.75
1777399179016,1809903,-0.76,-0.47,-0.43,-18.86,29.66,33.81
1777399179016,1809913,-0.74,-0.45,-0.46,-17.76,33.51,34.24
1777399179016,1809923,-0.71,-0.42,-0.49,-16.85,34.12,35.46
1777399179016,1809933,-0.70,-0.39,-0.54,-14.34,32.41,37.66
1777399179017,1809943,-0.69,-0.35,-0.54,-10.50,32.53,39.43
1777399179017,1809953,-0.70,-0.34,-0.55,-11.84,28.75,41.32
1777399179017,1809973,-0.78,-0.30,-0.53,-11.41,11.90,38.02
1777399179017,1809993,-0.78,-0.33,-0.52,-9.83,10.68,24.78
1777399179017,1810013,-0.83,-0.33,-0.50,-14.04,17.21,11.96
1777399179017,1810033,-0.76,-0.30,-0.52,-13.79,17.03,3.48
1777399179018,1810043,-0.73,-0.28,-0.55,-9.95,15.50,3.48
1777399179018,1810053,-0.69,-0.29,-0.57,-7.32,13.24,4.33
1777399179018,1810063,-0.67,-0.29,-0.59,-5.31,9.46,4.03
1777399179018,1810073,-0.66,-0.31,-0.59,-4.46,5.31,3.05
1777399179018,1810083,-0.66,-0.32,-0.59,-3.97,2.20,1.83
1777399179018,1810093,-0.66,-0.31,-0.58,-2.44,0.73,1.16
1777399179019,1810103,-0.68,-0.30,-0.56,-1.65,0.49,1.10
1777399179019,1810113,-0.69,-0.31,-0.54,-1.83,0.73,-0.06
1777399179019,1810123,-0.70,-0.31,-0.53,-2.38,0.18,-1.95
1777399179019,1810133,-0.71,-0.32,-0.52,-3.85,-0.73,-4.27
1777399179019,1810143,-0.72,-0.32,-0.53,-5.37,-1.16,-7.57
1777399179019,1810153,-0.73,-0.32,-0.54,-5.74,-0.67,-9.95
1777399179020,1810163,-0.72,-0.33,-0.53,-4.88,-0.06,-9.09
1777399179020,1810173,-0.72,-0.33,-0.55,-3.78,-0.73,-6.35
1777399179020,1810183,-0.70,-0.33,-0.55,-2.62,-2.44,-4.33
1777399179020,1810193,-0.68,-0.34,-0.56,-1.65,-4.82,-2.93
1777399179020,1810203,-0.66,-0.35,-0.59,-0.49,-6.41,-2.38
1777399179020,1810213,-0.66,-0.36,-0.56,2.01,-4.52,-2.56
1777399179020,1810223,-0.69,-0.35,-0.54,1.65,-2.87,-4.52
1777399179021,1810233,-0.72,-0.33,-0.52,-0.24,-2.99,-7.02
1777399179021,1810243,-0.75,-0.33,-0.50,-1.28,-5.25,-8.54
1777399179021,1810253,-0.75,-0.32,-0.51,-1.16,-7.39,-8.67
1777399179021,1810263,-0.75,-0.32,-0.52,-0.12,-7.32,-7.14
1777399179021,1810273,-0.74,-0.33,-0.52,0.55,-6.04,-5.86
1777399179021,1810283,-0.74,-0.34,-0.53,1.10,-4.82,-5.80
1777399179021,1810293,-0.74,-0.36,-0.52,2.62,-3.17,-6.59
1777399179022,1810313,-0.75,-0.36,-0.53,2.20,-4.03,-7.51
1777399179022,1810333,-0.75,-0.36,-0.52,1.04,-5.19,-3.23
1777399179022,1810353,-0.72,-0.36,-0.55,3.30,-3.54,-1.34
1777399179022,1810373,-0.74,-0.37,-0.52,4.09,0.37,-3.05
1777399179022,1810383,-0.75,-0.37,-0.53,2.14,-0.43,-4.94
1777399179022,1810393,-0.73,-0.37,-0.53,2.69,-1.95,-5.43
1777399179023,1810403,-0.73,-0.36,-0.52,2.99,-2.62,-4.88
1777399179023,1810413,-0.74,-0.36,-0.53,0.67,-3.30,-4.09
1777399179023,1810423,-0.74,-0.36,-0.54,-0.18,-4.03,-2.87
1777399179023,1810433,-0.73,-0.36,-0.56,0.92,-4.52,-2.08
1777399179023,1810443,-0.73,-0.36,-0.56,2.38,-3.72,-1.59
1777399179023,1810453,-0.74,-0.36,-0.55,2.50,-2.62,-1.46
1777399179023,1810463,-0.74,-0.36,-0.55,1.71,-2.50,-2.08
1777399179024,1810473,-0.75,-0.36,-0.55,1.77,-3.17,-3.11
1777399179024,1810483,-0.75,-0.36,-0.55,1.77,-3.60,-3.78
1777399179024,1810493,-0.76,-0.35,-0.54,0.37,-3.72,-4.58
1777399179024,1810503,-0.78,-0.34,-0.54,-0.85,-3.42,-4.64
1777399179024,1810513,-0.79,-0.33,-0.54,-0.55,-3.30,-3.78
1777399179024,1810523,-0.79,-0.32,-0.54,0.00,-2.93,-2.56
1777399179025,1810533,-0.79,-0.32,-0.54,0.18,-2.62,-1.34
1777399179025,1810543,-0.77,-0.31,-0.55,1.34,-2.08,-1.10
1777399179025,1810553,-0.76,-0.32,-0.56,2.81,-1.53,-1.83
1777399179025,1810563,-0.76,-0.34,-0.56,3.23,-1.16,-2.75
1777399179025,1810573,-0.75,-0.35,-0.56,3.11,-0.67,-3.11
1777399179025,1810583,-0.76,-0.35,-0.55,3.30,0.55,-2.44
1777399179025,1810593,-0.76,-0.35,-0.56,3.36,1.16,-1.89
1777399179026,1810603,-0.75,-0.35,-0.57,3.66,1.46,-1.22
1777399179026,1810613,-0.72,-0.35,-0.58,4.15,1.40,-0.37
1777399179026,1810623,-0.70,-0.35,-0.58,4.46,1.53,0.43
1777399179026,1810633,-0.70,-0.34,-0.58,4.46,1.10,0.73
1777399179026,1810643,-0.70,-0.33,-0.58,4.15,-0.31,-1.59
1777399179026,1810663,-0.72,-0.33,-0.56,2.26,-5.74,-4.39
1777399179026,1810683,-0.72,-0.33,-0.55,3.78,-4.70,-4.21
1777399179027,1810703,-0.72,-0.34,-0.55,4.27,-5.43,-5.98
1777399179027,1810723,-0.75,-0.34,-0.54,3.05,-7.81,-8.97
1777399179027,1810733,-0.76,-0.34,-0.53,2.62,-7.75,-9.28
1777399179027,1810743,-0.76,-0.35,-0.53,3.17,-6.77,-8.42
1777399179027,1810753,-0.76,-0.35,-0.54,4.09,-5.55,-6.96
1777399179027,1810763,-0.76,-0.35,-0.54,4.88,-4.82,-4.82
1777399179028,1810773,-0.75,-0.35,-0.54,4.88,-4.64,-2.93
1777399179028,1810783,-0.74,-0.35,-0.54,4.21,-4.70,-2.56
1777399179028,1810793,-0.74,-0.34,-0.54,3.78,-4.76,-3.05
1777399179028,1810803,-0.74,-0.34,-0.54,3.54,-4.52,-3.11
1777399179028,1810813,-0.74,-0.35,-0.54,3.54,-3.97,-2.93
1777399179028,1810823,-0.73,-0.35,-0.53,3.97,-3.66,-2.87
1777399179028,1810833,-0.73,-0.35,-0.53,4.58,-3.91,-3.42
1777399179029,1810843,-0.72,-0.35,-0.53,4.76,-4.33,-4.64
1777399179029,1810853,-0.72,-0.36,-0.53,4.46,-4.82,-6.10
1777399179029,1810863,-0.72,-0.37,-0.53,3.85,-5.13,-7.32
1777399179029,1810873,-0.72,-0.37,-0.54,3.60,-4.82,-7.32
1777399179029,1810883,-0.72,-0.38,-0.54,3.42,-4.33,-7.02
1777399179029,1810893,-0.72,-0.39,-0.54,2.62,-4.21,-6.77
1777399179029,1810903,-0.71,-0.39,-0.56,2.20,-4.21,-6.10
1777399179030,1810913,-0.70,-0.38,-0.57,2.56,-3.66,-5.19
1777399179030,1810923,-0.72,-0.38,-0.56,2.20,-3.05,-4.33
1777399179030,1810933,-0.74,-0.38,-0.55,1.04,-3.30,-3.85
1777399179030,1810943,-0.76,-0.36,-0.55,-0.43,-4.52,-4.03
1777399179030,1810953,-0.76,-0.35,-0.55,-1.22,-5.43,-4.09
1777399179030,1810963,-0.75,-0.34,-0.56,-1.16,-4.64,-3.54
1777399179030,1810973,-0.74,-0.34,-0.57,-0.31,-2.62,-2.38
1777399179031,1810983,-0.73,-0.33,-0.57,0.67,-0.85,-1.34
1777399179031,1811003,-0.72,-0.33,-0.58,1.77,-3.72,-1.77
1777399179031,1811023,-0.72,-0.31,-0.57,1.89,-5.37,-4.09
1777399179031,1811043,-0.74,-0.32,-0.56,3.30,-4.33,-5.25
1777399179031,1811063,-0.74,-0.33,-0.55,3.42,-4.94,-5.68
1777399179031,1811073,-0.75,-0.33,-0.56,3.42,-4.76,-4.52
1777399179031,1811083,-0.76,-0.33,-0.56,2.93,-4.09,-3.54
1777399179032,1811093,-0.74,-0.34,-0.56,3.05,-3.11,-3.54
1777399179032,1811103,-0.72,-0.34,-0.57,3.72,-1.53,-3.36
1777399179032,1811113,-0.71,-0.33,-0.58,4.21,-0.49,-2.20
1777399179032,1811123,-0.71,-0.32,-0.58,4.46,-0.98,-1.89
1777399179032,1811133,-0.71,-0.33,-0.58,4.70,-2.75,-2.08
1777399179032,1811143,-0.70,-0.34,-0.58,5.07,-4.58,-2.38
1777399179032,1811153,-0.71,-0.34,-0.59,5.19,-5.86,-2.56
1777399179033,1811163,-0.71,-0.34,-0.58,4.88,-6.53,-2.93
1777399179033,1811173,-0.71,-0.34,-0.57,4.76,-6.84,-3.66
1777399179033,1811183,-0.72,-0.34,-0.57,5.07,-6.59,-4.03
1777399179033,1811193,-0.73,-0.32,-0.56,5.43,-6.16,-3.72
1777399179033,1811203,-0.74,-0.32,-0.56,5.86,-6.29,-3.11
1777399179033,1811213,-0.74,-0.32,-0.55,6.77,-6.59,-2.87
1777399179033,1811223,-0.74,-0.33,-0.54,7.20,-7.14,-3.11
1777399179033,1811233,-0.74,-0.34,-0.54,7.14,-7.63,-4.09
1777399179034,1811243,-0.75,-0.35,-0.53,6.77,-7.63,-5.43
1777399179034,1811253,-0.75,-0.36,-0.53,6.47,-7.26,-6.53
1777399179034,1811263,-0.75,-0.36,-0.53,6.16,-6.71,-7.02
1777399179034,1811273,-0.76,-0.36,-0.53,5.74,-6.35,-6.90
1777399179034,1811283,-0.77,-0.36,-0.52,5.68,-6.65,-5.86
1777399179034,1811293,-0.77,-0.35,-0.52,5.80,-7.51,-4.58
1777399179034,1811303,-0.77,-0.35,-0.52,5.86,-8.30,-3.85
1777399179035,1811313,-0.77,-0.35,-0.52,5.92,-8.54,-4.15
1777399179035,1811323,-0.76,-0.35,-0.51,6.10,-8.24,-5.13
1777399179035,1811333,-0.76,-0.35,-0.51,6.10,-7.87,-8.00
1777399179035,1811353,-0.75,-0.37,-0.52,4.88,-6.41,-9.89
1777399179035,1811373,-0.73,-0.39,-0.52,3.91,-5.68,-10.38
1777399179035,1811393,-0.72,-0.38,-0.52,2.69,-6.53,-9.70
1777399179035,1811413,-0.71,-0.38,-0.52,3.23,-5.74,-7.02
1777399179035,1811423,-0.70,-0.38,-0.52,4.03,-5.13,-4.58
1777399179036,1811433,-0.70,-0.37,-0.52,4.52,-5.00,-2.69
1777399179036,1811443,-0.69,-0.37,-0.53,4.70,-5.43,-1.46
1777399179036,1811453,-0.69,-0.36,-0.53,4.46,-6.10,-1.46
1777399179036,1811463,-0.70,-0.36,-0.53,3.91,-6.84,-2.32
1777399179036,1811473,-0.72,-0.37,-0.53,3.36,-7.69,-3.60
1777399179036,1811483,-0.73,-0.37,-0.53,3.05,-8.42,-5.31
1777399179036,1811493,-0.74,-0.38,-0.53,3.30,-7.39,-6.16
1777399179036,1811503,-0.76,-0.38,-0.52,3.36,-4.94,-7.20
1777399179037,1811513,-0.78,-0.39,-0.52,1.65,-4.70,-8.97
1777399179037,1811523,-0.78,-0.37,-0.53,0.43,-6.71,-10.62
1777399179037,1811533,-0.78,-0.36,-0.54,-0.31,-8.97,-11.72
1777399179037,1811543,-0.79,-0.38,-0.54,-1.04,-9.46,-12.08
1777399179037,1811553,-0.80,-0.38,-0.54,-0.92,-8.24,-10.80
1777399179037,1811563,-0.79,-0.38,-0.54,-0.06,-5.98,-8.61
1777399179037,1811573,-0.78,-0.38,-0.54,0.98,-3.60,-6.16
1777399179038,1811583,-0.76,-0.38,-0.55,1.46,-1.46,-3.78
1777399179038,1811593,-0.74,-0.38,-0.55,1.71,0.67,-1.28
1777399179038,1811603,-0.72,-0.37,-0.56,2.44,2.50,1.04
1777399179038,1811613,-0.70,-0.35,-0.56,2.99,3.72,2.50
1777399179038,1811623,-0.68,-0.35,-0.57,3.54,3.60,3.42
1777399179038,1811633,-0.67,-0.34,-0.58,3.60,2.38,3.60
1777399179038,1811643,-0.67,-0.34,-0.58,3.42,0.79,2.50
1777399179039,1811653,-0.67,-0.33,-0.58,3.54,-0.55,1.22
1777399179039,1811663,-0.68,-0.33,-0.58,3.72,-1.59,-0.18
1777399179039,1811673,-0.68,-0.34,-0.58,3.66,-2.14,-1.22
1777399179039,1811693,-0.69,-0.34,-0.59,4.88,-4.82,-0.61
1777399179039,1811713,-0.71,-0.32,-0.58,4.94,-6.90,-1.65
1777399179039,1811733,-0.76,-0.32,-0.56,5.86,-7.63,-2.08
1777399179039,1811753,-0.78,-0.31,-0.55,6.53,-7.75,-2.75
1777399179040,1811763,-0.79,-0.32,-0.55,6.96,-7.32,-3.72
1777399179040,1811773,-0.79,-0.32,-0.54,7.20,-6.71,-4.46
1777399179040,1811783,-0.79,-0.32,-0.54,7.51,-6.04,-4.76
1777399179040,1811793,-0.78,-0.32,-0.54,8.00,-5.80,-4.76
1777399179040,1811803,-0.78,-0.33,-0.53,8.42,-5.74,-5.00
1777399179040,1811813,-0.77,-0.33,-0.53,8.85,-6.04,-5.31
1777399179040,1811823,-0.77,-0.33,-0.52,8.91,-6.84,-5.68
1777399179041,1811833,-0.77,-0.34,-0.52,9.09,-7.26,-5.49
1777399179041,1811843,-0.76,-0.34,-0.52,9.52,-7.57,-5.31
1777399179041,1811853,-0.75,-0.35,-0.52,9.83,-7.45,-5.55
1777399179041,1811863,-0.74,-0.36,-0.52,10.01,-7.02,-5.55
1777399179041,1811873,-0.72,-0.36,-0.52,10.13,-6.77,-5.80
1777399179041,1811883,-0.71,-0.37,-0.52,10.19,-7.20,-5.92
1777399179041,1811893,-0.70,-0.38,-0.52,10.25,-8.00,-5.62
1777399179042,1811903,-0.68,-0.38,-0.52,10.13,-9.34,-5.68
1777399179042,1811913,-0.67,-0.38,-0.52,10.01,-10.99,-5.74
1777399179042,1811923,-0.66,-0.38,-0.53,9.77,-12.70,-6.10
1777399179042,1811933,-0.65,-0.37,-0.53,9.28,-15.01,-6.77
1777399179042,1811943,-0.64,-0.37,-0.53,8.79,-18.07,-7.87
1777399179042,1811953,-0.63,-0.35,-0.54,8.73,-21.73,-9.09
1777399179042,1811963,-0.63,-0.33,-0.55,8.54,-25.70,-10.19
1777399179042,1811973,-0.64,-0.32,-0.55,8.54,-29.66,-11.54
1777399179043,1811983,-0.65,-0.29,-0.56,10.62,-32.71,-11.11
1777399179043,1811993,-0.66,-0.29,-0.56,14.59,-33.33,-6.71
1777399179043,1812003,-0.68,-0.29,-0.57,19.59,-31.62,0.18
1777399179047,1812013,-0.67,-0.30,-0.56,24.78,-29.36,6.96
1777399179047,1812023,-0.65,-0.29,-0.54,29.60,-28.08,14.53
1777399179047,1812043,-0.66,-0.30,-0.51,31.31,-31.62,7.20
1777399179047,1812063,-0.67,-0.36,-0.50,22.95,-38.33,-13.92
1777399179048,1812083,-0.67,-0.37,-0.49,19.90,-44.80,-38.39
1777399179048,1812103,-0.64,-0.29,-0.49,20.26,-55.48,-57.68
1777399179048,1812113,-0.63,-0.26,-0.47,17.27,-65.55,-64.94
1777399179048,1812123,-0.65,-0.26,-0.45,15.44,-78.31,-70.68
1777399179048,1812133,-0.69,-0.28,-0.43,17.82,-91.98,-74.16
1777399179049,1812143,-0.73,-0.30,-0.42,21.24,-104.43,-77.27
1777399179049,1812153,-0.75,-0.34,-0.41,21.12,-113.34,-80.63
1777399179049,1812163,-0.77,-0.40,-0.38,18.92,-114.44,-82.09
1777399179049,1812173,-0.79,-0.43,-0.38,21.61,-107.73,-79.59
1777399179050,1812183,-0.81,-0.42,-0.38,28.32,-96.74,-72.63
1777399179050,1812193,-0.80,-0.41,-0.37,35.52,-86.73,-62.93
1777399179051,1812203,-0.79,-0.41,-0.37,40.89,-80.63,-52.86
1777399179051,1812213,-0.80,-0.40,-0.35,44.68,-79.71,-43.64
1777399179052,1812223,-0.80,-0.42,-0.29,45.53,-83.68,-36.01
1777399179055,1812233,-0.82,-0.48,-0.22,41.81,-88.81,-29.60
1777399179055,1812243,-0.89,-0.51,-0.17,37.48,-90.88,-25.45
1777399179056,1812253,-0.96,-0.51,-0.14,35.22,-87.22,-23.01
1777399179056,1812263,-1.01,-0.52,-0.13,34.85,-78.00,-20.02
1777399179056,1812273,-0.99,-0.58,-0.11,35.46,-68.36,-17.58
1777399179057,1812283,-0.97,-0.64,-0.08,34.00,-61.58,-16.66
1777399179057,1812293,-0.97,-0.68,-0.07,30.82,-58.35,-13.92
1777399179057,1812303,-0.98,-0.68,-0.05,27.40,-56.64,-8.12
1777399179058,1812313,-0.89,-0.55,-0.18,21.79,-56.58,-2.08
1777399179058,1812323,-1.27,-1.46,0.30,-19.29,9.77,7.20
1777399179058,1812333,-1.43,-0.61,0.13,17.70,78.61,3.48
1777399179058,1812343,-1.05,-0.54,0.09,21.36,45.04,-3.05
1777399179060,1812353,-1.00,-0.44,0.01,12.08,20.63,9.28
1777399179061,1812363,-0.83,-0.38,-0.09,-1.46,-15.75,28.69
1777399179063,1812383,-0.47,-0.88,-0.07,3.48,13.85,105.04
1777399179063,1812403,-0.68,-0.91,0.02,-17.46,12.82,98.33
1777399179063,1812423,-0.91,-0.56,-0.09,-7.45,9.03,81.60
1777399179067,1812443,-0.77,-0.51,-0.10,-31.31,-46.75,58.17
1777399179069,1812453,-0.75,-0.52,-0.14,-42.36,-70.68,45.96
1777399179069,1812463,-0.72,-0.60,-0.13,-44.01,-88.38,38.57
1777399179070,1812473,-0.69,-0.67,-0.09,-30.52,-103.58,35.10
1777399179073,1812483,-0.68,-0.63,-0.15,-10.80,-123.47,29.79
1777399179075,1812493,-0.83,-0.62,-0.06,-1.22,-142.33,18.62
1777399179075,1812503,-1.04,-0.56,-0.03,-13.00,-161.32,-1.22
1777399179075,1812513,-0.93,-0.59,0.17,-48.10,-179.57,-27.40
1777399179076,1812523,-0.47,-0.29,-0.01,-54.99,-197.75,-45.78
1777399179076,1812533,-0.49,-0.44,-0.21,-21.30,-207.64,-31.25
1777399179076,1812543,-0.63,-0.57,-0.20,1.59,-194.21,-8.42
1777399179077,1812553,-0.60,-0.45,-0.13,1.59,-160.95,7.32
1777399179077,1812563,-0.52,-0.36,-0.13,-6.41,-128.78,20.39
1777399179078,1812573,-0.58,-0.40,-0.04,-14.04,-104.00,39.73
1777399179078,1812583,-0.62,-0.55,0.12,-17.46,-85.69,59.75
1777399179081,1812593,-0.74,-0.52,0.20,-12.82,-75.38,74.10
1777399179081,1812603,-0.90,-0.53,0.37,-7.63,-76.11,70.80
1777399179081,1812613,-0.82,-0.43,0.69,-7.75,-80.75,58.65
1777399179082,1812623,-0.81,-0.32,0.82,-13.79,-91.25,52.92
1777399179082,1812633,-0.82,-0.82,0.51,-13.55,-99.67,58.23
1777399179082,1812643,-0.80,-0.77,0.54,15.01,-85.94,53.34
1777399179082,1812653,-0.77,-0.54,0.39,41.87,-57.01,47.61
1777399179082,1812663,-0.78,-0.38,0.42,47.18,-6.23,48.10
1777399179083,1812673,-0.78,-0.33,0.59,35.46,52.43,54.87
1777399179083,1812683,-0.94,-0.37,0.74,14.40,96.62,66.16
1777399179083,1812693,-1.06,-0.34,0.80,-11.41,115.30,66.71
1777399179084,1812703,-1.09,-0.29,0.69,-33.08,114.07,55.79
1777399179084,1812713,-1.08,-0.22,0.50,-45.72,124.63,26.92
1777399179084,1812733,-0.87,-0.12,0.09,-39.67,169.92,2.38
1777399179084,1812753,-0.85,-0.35,-0.07,-44.19,239.44,-14.89
1777399179085,1812773,-0.99,-0.33,0.01,-50.90,250.73,-29.91
1777399179085,1812793,-1.02,-0.28,-0.13,-55.97,202.94,-33.57
1777399179085,1812803,-1.00,-0.27,-0.23,-51.82,180.05,-36.80
1777399179086,1812813,-0.94,-0.24,-0.32,-46.08,163.57,-45.17
1777399179086,1812823,-0.88,-0.19,-0.38,-41.38,155.76,-53.22
1777399179086,1812833,-0.83,-0.15,-0.40,-41.38,154.17,-55.05
1777399179087,1812843,-0.79,-0.16,-0.36,-49.50,152.47,-49.80
1777399179088,1812853,-0.81,-0.15,-0.29,-61.65,143.86,-42.66
1777399179089,1812863,-0.80,-0.18,-0.30,-72.33,124.15,-35.64
1777399179090,1812873,-0.79,-0.21,-0.39,-79.28,101.01,-32.41
1777399179091,1812883,-0.80,-0.21,-0.55,-74.40,83.01,-34.12
1777399179091,1812893,-0.83,-0.15,-0.66,-58.96,77.76,-36.19
1777399179091,1812903,-0.90,-0.11,-0.72,-44.43,83.37,-35.28
1777399179095,1812913,-0.94,-0.13,-0.70,-38.21,93.02,-33.02
1777399179096,1812923,-0.97,-0.16,-0.67,-37.23,100.16,-31.68
1777399179096,1812933,-0.98,-0.18,-0.63,-39.06,102.84,-32.78
1777399179098,1812943,-0.94,-0.21,-0.60,-44.25,99.98,-36.32
1777399179099,1812953,-0.87,-0.23,-0.58,-49.99,90.21,-42.91
1777399179099,1812963,-0.79,-0.21,-0.60,-52.00,77.03,-48.34
1777399179101,1812973,-0.72,-0.19,-0.64,-50.78,64.09,-49.26
1777399179101,1812983,-0.68,-0.21,-0.69,-47.18,53.34,-47.24
1777399179102,1812993,-0.65,-0.23,-0.72,-38.70,44.56,-44.68
1777399179102,1813003,-0.63,-0.23,-0.75,-22.71,37.66,-41.63
1777399179102,1813013,-0.61,-0.29,-0.75,-5.86,33.87,-37.11
1777399179102,1813023,-0.63,-0.31,-0.69,7.63,32.59,-32.65
1777399179102,1813033,-0.64,-0.35,-0.63,22.71,29.30,-30.03
1777399179102,1813043,-0.64,-0.31,-0.57,30.52,24.41,-27.28
1777399179102,1813053,-0.66,-0.28,-0.53,25.82,16.36,-22.58
1777399179103,1813073,-0.70,-0.24,-0.61,1.77,-4.27,-19.29
1777399179103,1813093,-0.68,-0.29,-0.78,-1.46,10.99,-12.08
1777399179103,1813113,-0.72,-0.35,-0.76,5.92,26.43,-6.77
1777399179104,1813133,-0.67,-0.30,-0.75,10.13,26.25,-10.93
1777399179104,1813143,-0.63,-0.29,-0.76,7.93,23.80,-12.27
1777399179104,1813153,-0.61,-0.27,-0.76,2.20,21.73,-11.78
1777399179104,1813163,-0.59,-0.26,-0.74,-6.10,19.17,-11.41
1777399179104,1813173,-0.58,-0.24,-0.67,-12.33,14.28,-11.11
1777399179105,1813183,-0.55,-0.26,-0.69,-12.82,5.00,-9.70
1777399179105,1813193,-0.46,-0.39,-0.59,-12.57,-3.17,-8.79
1777399179105,1813203,-0.38,-0.56,-0.47,-2.14,-9.16,-7.26
1777399179105,1813213,-0.35,-0.37,-0.59,7.51,-5.68,-8.85
1777399179107,1813223,-0.37,-0.18,-0.72,-4.03,4.27,-8.24
1777399179108,1813233,-0.42,-0.06,-0.75,-19.78,23.25,-9.95
1777399179108,1813243,-0.46,-0.01,-0.72,-27.04,43.82,-10.93
1777399179108,1813253,-0.50,-0.04,-0.71,-31.43,54.26,-5.49
1777399179108,1813263,-0.55,-0.16,-0.64,-38.27,53.16,4.52
1777399179108,1813273,-0.62,-0.22,-0.61,-40.65,41.63,11.78
1777399179108,1813283,-0.70,-0.27,-0.63,-41.26,22.22,15.32
1777399179109,1813293,-0.77,-0.32,-0.70,-41.38,1.34,16.85
1777399179109,1813303,-0.82,-0.34,-0.78,-40.22,-15.56,17.27
1777399179109,1813313,-0.83,-0.41,-0.89,-39.12,-28.14,17.21
1777399179110,1813323,-0.76,-0.46,-1.28,-39.49,-30.88,11.35
1777399179110,1813333,-0.83,-0.47,-0.99,-38.51,-8.54,0.18
1777399179110,1813343,-0.86,-0.39,-0.91,-15.63,0.61,-6.35
1777399179110,1813353,-0.81,-0.33,-0.92,4.03,0.31,-11.66
1777399179111,1813363,-0.77,-0.32,-0.82,6.71,0.85,-17.40
1777399179111,1813373,-0.69,-0.34,-0.78,6.53,-4.09,-21.18
1777399179111,1813383,-0.60,-0.35,-0.80,8.54,-9.46,-22.09
1777399179111,1813393,-0.54,-0.33,-0.76,10.31,-8.00,-21.55
1777399179114,1813403,-0.51,-0.32,-0.69,13.24,-5.49,-17.27
1777399179114,1813423,-0.50,-0.29,-0.65,19.65,-3.36,-13.61
1777399179115,1813443,-0.55,-0.27,-0.67,11.96,-0.67,-15.32
1777399179115,1813463,-0.54,-0.26,-0.73,3.30,5.31,-18.01
1777399179115,1813483,-0.55,-0.26,-0.76,-7.20,10.56,-15.87
1777399179116,1813493,-0.55,-0.28,-0.78,-10.74,11.05,-13.73
1777399179116,1813503,-0.54,-0.28,-0.79,-12.94,10.74,-12.70
1777399179116,1813513,-0.51,-0.25,-0.81,-12.45,9.52,-11.54
1777399179116,1813523,-0.55,-0.28,-0.86,-9.77,8.61,-8.54
1777399179117,1813533,-0.60,-0.32,-0.89,-3.85,9.09,-6.96
1777399179117,1813543,-0.62,-0.35,-0.86,6.90,8.18,-9.95
1777399179117,1813553,-0.59,-0.31,-0.81,17.70,4.09,-15.14
1777399179117,1813563,-0.57,-0.29,-0.78,20.32,-2.26,-17.82
1777399179117,1813573,-0.55,-0.30,-0.76,17.94,-7.32,-17.09
1777399179117,1813583,-0.54,-0.29,-0.74,14.10,-10.13,-14.77
1777399179117,1813593,-0.53,-0.27,-0.72,9.03,-11.29,-12.33
1777399179117,1813603,-0.54,-0.26,-0.71,2.87,-11.96,-10.31
1777399179118,1813613,-0.51,-0.26,-0.72,-2.56,-11.47,-9.46
1777399179118,1813623,-0.49,-0.28,-0.74,-4.94,-8.73,-9.09
1777399179118,1813633,-0.50,-0.31,-0.75,-2.81,-3.66,-8.79
1777399179118,1813643,-0.51,-0.32,-0.77,2.08,1.77,-9.22
1777399179118,1813653,-0.52,-0.31,-0.75,6.71,5.62,-10.01
1777399179119,1813663,-0.53,-0.32,-0.74,7.93,6.90,-9.95
1777399179119,1813673,-0.53,-0.33,-0.73,4.94,5.92,-8.54
1777399179119,1813683,-0.55,-0.34,-0.73,1.40,3.23,-6.16
1777399179119,1813693,-0.55,-0.32,-0.74,-1.10,-0.43,-4.46
1777399179119,1813703,-0.55,-0.32,-0.75,-3.17,-3.54,-3.72
1777399179119,1813713,-0.55,-0.30,-0.76,-5.07,-5.19,-3.78
1777399179119,1813723,-0.55,-0.29,-0.77,-6.29,-6.23,-4.64
1777399179123,1813733,-0.54,-0.30,-0.76,-5.25,-6.59,-6.04
1777399179123,1813743,-0.52,-0.32,-0.76,-3.42,-5.92,-6.65
1777399179125,1813763,-0.54,-0.30,-0.77,-0.06,-3.72,-7.32
1777399179125,1813783,-0.53,-0.34,-0.77,-1.28,-2.69,-6.29
1777399179126,1813803,-0.53,-0.31,-0.77,2.20,-3.60,-3.97
1777399179126,1813823,-0.55,-0.30,-0.77,1.10,-3.72,-1.10
1777399179127,1813833,-0.56,-0.29,-0.77,2.56,-3.85,-0.73
1777399179127,1813843,-0.57,-0.28,-0.77,3.78,-4.58,-1.59
1777399179127,1813853,-0.58,-0.27,-0.77,3.97,-6.23,-3.05
1777399179127,1813863,-0.57,-0.29,-0.77,4.03,-8.18,-4.46
1777399179128,1813873,-0.56,-0.31,-0.77,4.76,-9.83,-5.43
1777399179128,1813883,-0.56,-0.31,-0.78,5.74,-10.68,-5.07
1777399179129,1813893,-0.57,-0.31,-0.79,6.16,-10.50,-3.17
1777399179129,1813903,-0.58,-0.30,-0.80,6.16,-9.77,-0.92
1777399179129,1813913,-0.60,-0.30,-0.79,7.32,-8.97,1.34
1777399179129,1813923,-0.61,-0.30,-0.79,9.22,-9.77,1.89
1777399179129,1813933,-0.62,-0.32,-0.77,11.35,-12.70,-0.24
1777399179129,1813943,-0.60,-0.33,-0.76,13.00,-16.91,-2.44
1777399179130,1813953,-0.59,-0.34,-0.77,13.43,-21.97,-1.59
1777399179130,1813963,-0.61,-0.34,-0.78,14.22,-26.92,2.01
1777399179131,1813973,-0.66,-0.36,-0.77,16.66,-32.59,6.96
1777399179131,1813983,-0.69,-0.37,-0.76,20.32,-41.69,9.46
1777399179131,1813993,-0.70,-0.35,-0.76,24.48,-53.41,9.03
1777399179132,1814003,-0.68,-0.33,-0.77,28.26,-63.84,8.48
1777399179132,1814013,-0.67,-0.31,-0.77,29.91,-70.19,8.73
1777399179132,1814023,-0.66,-0.30,-0.76,30.70,-73.12,10.99
1777399179132,1814033,-0.65,-0.29,-0.73,32.96,-75.01,15.20
1777399179132,1814043,-0.67,-0.28,-0.66,35.77,-77.70,20.32
1777399179132,1814053,-0.65,-0.27,-0.60,36.50,-82.70,24.90
1777399179132,1814063,-0.64,-0.25,-0.56,33.87,-88.87,27.77
1777399179132,1814073,-0.63,-0.23,-0.55,27.83,-93.38,30.27
1777399179132,1814083,-0.62,-0.24,-0.56,18.86,-94.24,32.90
1777399179133,1814093,-0.60,-0.25,-0.57,10.80,-90.82,34.91
1777399179133,1814113,-0.55,-0.23,-0.74,0.55,-46.69,30.15
1777399179133,1814133,-0.62,-0.08,-0.66,-4.70,-18.01,26.98
1777399179133,1814153,-0.56,0.05,-0.54,-15.81,-8.97,22.28
1777399179133,1814173,-0.76,0.14,-0.52,-30.27,-0.98,9.58
1777399179133,1814183,-0.75,0.12,-0.55,-35.95,0.67,6.04
1777399179133,1814193,-0.75,0.01,-0.56,-44.01,3.36,0.85
1777399179133,1814203,-0.73,-0.07,-0.62,-50.29,9.89,-5.25
1777399179133,1814213,-0.73,-0.12,-0.61,-48.40,20.02,-14.65
1777399179134,1814223,-0.76,-0.13,-0.58,-42.18,28.63,-24.17
1777399179134,1814233,-0.76,-0.17,-0.56,-37.48,31.31,-30.09
1777399179135,1814243,-0.76,-0.19,-0.56,-34.67,29.72,-31.31
1777399179135,1814253,-0.80,-0.20,-0.58,-33.51,28.26,-29.54
1777399179135,1814263,-0.79,-0.24,-0.60,-34.06,26.86,-27.77
1777399179135,1814273,-0.83,-0.25,-0.60,-35.28,24.96,-26.43
1777399179135,1814283,-0.88,-0.24,-0.64,-36.38,22.09,-24.17
1777399179135,1814293,-0.91,-0.23,-0.68,-36.87,17.33,-24.78
1777399179135,1814303,-0.91,-0.26,-0.73,-35.95,11.72,-29.48
1777399179135,1814313,-0.90,-0.25,-0.80,-32.23,6.59,-36.80
1777399179135,1814323,-0.85,-0.29,-0.83,-25.51,2.44,-41.02
1777399179136,1814333,-0.81,-0.30,-0.87,-16.66,0.67,-41.87
1777399179136,1814343,-0.81,-0.28,-0.86,-7.93,-1.22,-39.25
1777399179136,1814353,-0.77,-0.30,-0.85,-1.04,-5.98,-33.94
1777399179136,1814363,-0.75,-0.26,-0.86,4.70,-13.18,-30.33
1777399179136,1814373,-0.74,-0.25,-0.86,9.09,-22.28,-27.77
1777399179136,1814383,-0.70,-0.21,-0.83,10.44,-33.69,-24.84
1777399179136,1814393,-0.82,-0.32,-0.87,10.13,-45.59,-19.90
1777399179137,1814403,-0.80,-0.35,-0.86,16.54,-56.15,-21.55
1777399179137,1814413,-0.73,-0.38,-0.87,29.79,-66.35,-27.65
1777399179141,1814423,-0.70,-0.34,-0.87,45.78,-73.49,-31.68
1777399179141,1814433,-0.65,-0.33,-0.83,55.85,-77.58,-30.09
1777399179141,1814453,-0.62,-0.36,-0.84,60.18,-80.26,-16.78
1777399179141,1814473,-0.65,-0.29,-0.69,60.36,-82.40,-14.28
1777399179141,1814493,-0.66,-0.33,-0.67,60.97,-88.32,-13.18
1777399179141,1814513,-0.70,-0.37,-0.59,68.42,-95.89,-10.86
1777399179141,1814523,-0.71,-0.37,-0.56,74.40,-102.11,-12.08
1777399179141,1814533,-0.72,-0.35,-0.53,80.75,-106.69,-13.79
1777399179142,1814543,-0.72,-0.34,-0.49,84.23,-107.79,-14.59
1777399179142,1814553,-0.71,-0.36,-0.45,84.66,-105.90,-13.98
1777399179142,1814563,-0.72,-0.39,-0.41,84.41,-101.44,-12.15
1777399179142,1814573,-0.72,-0.39,-0.38,83.74,-95.95,-10.01
1777399179142,1814583,-0.73,-0.38,-0.35,82.03,-90.15,-8.67
1777399179142,1814593,-0.75,-0.38,-0.31,79.04,-84.35,-8.30
1777399179142,1814603,-0.76,-0.40,-0.26,75.50,-80.32,-8.48
1777399179142,1814613,-0.75,-0.45,-0.21,73.79,-79.77,-8.24
1777399179142,1814623,-0.76,-0.45,-0.18,75.50,-81.97,-7.93
1777399179142,1814633,-0.79,-0.42,-0.16,78.61,-85.02,-6.77
1777399179143,1814643,-0.80,-0.44,-0.13,78.98,-87.28,-5.19
1777399179143,1814653,-0.80,-0.45,-0.12,77.76,-87.46,-6.16
1777399179143,1814663,-0.79,-0.45,-0.11,75.38,-83.37,-9.28
1777399179143,1814673,-0.79,-0.45,-0.09,70.50,-75.13,-11.96
1777399179144,1814683,-0.80,-0.45,-0.07,64.94,-64.82,-13.12
1777399179144,1814693,-0.84,-0.46,-0.04,60.91,-54.44,-12.51
1777399179144,1814703,-0.87,-0.47,-0.00,58.47,-46.81,-11.96
1777399179145,1814713,-0.89,-0.49,0.03,57.01,-43.58,-12.70
1777399179146,1814723,-0.90,-0.50,0.05,57.50,-43.95,-14.47
1777399179146,1814733,-0.90,-0.49,0.06,59.88,-45.10,-16.91
1777399179146,1814743,-0.89,-0.47,0.08,61.77,-44.43,-18.80
1777399179147,1814753,-0.89,-0.47,0.11,60.91,-42.05,-19.65
1777399179147,1814763,-0.88,-0.45,0.14,57.13,-39.00,-20.08
1777399179147,1814773,-0.87,-0.44,0.16,50.11,-37.23,-20.87
1777399179148,1814783,-0.83,-0.45,0.16,42.18,-37.23,-22.34
1777399179148,1814803,-0.75,-0.51,0.17,30.03,-39.73,-17.21
1777399179148,1814823,-0.69,-0.57,0.18,29.36,-39.43,-8.06
1777399179149,1814843,-0.72,-0.55,0.22,30.21,-35.83,-0.24
1777399179149,1814863,-0.76,-0.53,0.23,24.84,-37.48,8.73
1777399179149,1814873,-0.79,-0.51,0.24,21.48,-38.76,11.96
1777399179149,1814883,-0.82,-0.51,0.25,17.03,-40.71,13.43
1777399179150,1814893,-0.82,-0.53,0.24,14.34,-43.58,12.70
1777399179150,1814903,-0.82,-0.54,0.22,15.87,-44.62,9.28
1777399179150,1814913,-0.83,-0.54,0.23,19.59,-40.77,4.52
1777399179150,1814923,-0.83,-0.54,0.24,22.89,-35.10,0.92
1777399179151,1814933,-0.85,-0.54,0.24,25.45,-30.52,-1.46
1777399179151,1814943,-0.87,-0.53,0.25,28.69,-28.32,-3.78
1777399179151,1814953,-0.86,-0.57,0.24,34.79,-27.65,-4.58
1777399179151,1814963,-0.72,-0.30,0.41,40.83,-25.94,-1.40
1777399179152,1814973,-0.87,-0.35,0.49,22.34,-25.15,15.87
1777399179152,1814983,-0.94,-0.44,0.43,-15.26,-25.09,24.90
1777399179153,1814993,-0.85,-0.51,0.30,-36.93,-22.77,22.22
1777399179153,1815003,-0.84,-0.53,0.21,-38.76,-17.70,17.94
1777399179153,1815013,-0.90,-0.55,0.17,-34.30,-14.34,13.31
1777399179154,1815023,-1.00,-0.46,0.14,-24.96,-13.06,1.83
1777399179155,1815033,-0.99,-0.41,0.11,-14.47,-13.98,-10.50
1777399179155,1815043,-0.93,-0.37,0.11,-5.49,-15.50,-18.43
1777399179155,1815053,-0.86,-0.29,0.11,-1.46,-13.37,-21.06
1777399179155,1815063,-0.83,-0.21,0.07,-13.31,-6.10,-17.82
1777399179155,1815073,-0.83,-0.21,0.03,-40.71,7.26,-10.68
1777399179156,1815083,-0.79,-0.21,0.01,-72.02,23.93,-2.56
1777399179156,1815093,-0.78,-0.21,0.01,-102.97,39.43,5.62
1777399179156,1815103,-0.79,-0.22,0.05,-132.93,51.57,15.08
1777399179156,1815113,-0.84,-0.23,0.08,-157.17,58.84,24.72
1777399179156,1815123,-0.89,-0.29,0.07,-170.35,59.33,35.03
1777399179156,1815143,-0.92,-0.39,-0.05,-156.37,36.13,44.31
1777399179156,1815163,-0.92,-0.25,-0.59,-84.23,29.79,39.43
1777399179156,1815183,-0.94,-0.56,-0.29,-53.53,55.30,20.75
1777399179156,1815203,-0.94,-0.49,-0.36,8.85,50.23,1.16
1777399179156,1815213,-0.87,-0.32,-0.33,22.22,50.60,-8.42
1777399179157,1815223,-0.86,-0.09,-0.27,34.12,50.17,-6.10
1777399179157,1815233,-0.93,-0.43,-0.18,47.42,43.95,3.54
1777399179157,1815243,-0.87,-0.37,0.06,46.45,30.52,1.89
1777399179157,1815253,-0.86,-0.29,-0.01,49.74,4.09,-2.56
1777399179157,1815263,-0.83,-0.37,-0.07,54.99,-17.94,2.08
1777399179157,1815273,-0.78,-0.32,-0.15,50.90,-27.89,6.84
1777399179157,1815283,-0.74,-0.27,-0.13,39.31,-27.16,13.79
1777399179158,1815293,-0.76,-0.24,-0.04,16.11,-19.84,22.46
1777399179158,1815303,-0.79,-0.21,-0.03,-17.94,-11.78,30.09
1777399179158,1815313,-0.87,-0.29,-0.03,-50.66,-4.64,36.19
1777399179158,1815323,-0.92,-0.26,-0.06,-73.43,-1.65,34.91
1777399179158,1815333,-0.97,-0.24,-0.12,-85.57,-1.65,28.20
1777399179159,1815343,-0.96,-0.04,-0.19,-93.51,2.14,24.72
1777399179159,1815353,-0.96,-0.18,0.09,-115.60,6.90,25.27
1777399179159,1815363,-1.05,-0.42,0.30,-156.31,-8.73,13.98
1777399179159,1815373,-1.08,-0.16,-0.08,-154.60,-40.95,6.96
1777399179159,1815383,-0.95,-0.35,-0.12,-124.82,-64.51,14.28
1777399179159,1815393,-0.96,-0.28,-0.56,-128.42,-75.01,13.43
1777399179159,1815403,-1.01,-0.17,-0.25,-113.16,-58.23,15.87
1777399179160,1815413,-0.84,-0.64,-0.26,-109.56,-49.56,10.44
1777399179160,1815423,-0.91,-0.45,-0.31,-123.78,-44.86,-13.18
1777399179160,1815433,-0.90,-0.41,-0.44,-104.19,-27.28,-22.89
1777399179160,1815443,-0.89,-0.34,-0.50,-79.90,-4.39,-25.27
1777399179160,1815453,-1.00,-0.10,-0.44,-66.77,24.54,-20.45
1777399179160,1815463,-1.12,-0.06,-0.38,-53.28,44.13,-8.67
1777399179160,1815473,-1.12,-0.29,-0.35,-43.03,55.73,-14.53
1777399179160,1815493,-1.05,-0.30,-0.14,-24.11,37.84,-20.26
1777399179161,1815513,-1.06,-0.23,-0.23,-16.17,27.16,-30.03
1777399179161,1815533,-0.90,-0.35,-0.31,12.76,22.46,-26.31
1777399179161,1815553,-0.79,-0.32,-0.24,43.70,23.50,-21.79
1777399179161,1815563,-0.35,0.14,-0.10,30.88,32.41,-11.78
1777399179161,1815573,-0.89,-0.25,-0.29,-71.04,50.23,33.26
1777399179161,1815583,-1.06,-0.22,-0.57,-101.62,50.96,47.24
1777399179162,1815593,-0.98,-0.48,-0.28,-88.87,36.68,32.65
1777399179162,1815603,-1.10,-0.25,-0.35,-83.56,8.79,-10.44
1777399179162,1815613,-0.73,-0.26,-0.42,-65.49,-15.63,-25.02
1777399179162,1815623,-0.66,-0.54,-0.32,-48.40,-27.34,-16.78
1777399179162,1815633,-0.64,-0.46,-0.30,-5.98,-45.35,-13.00
1777399179163,1815643,-0.88,-0.23,-0.31,41.50,-66.47,-12.39
1777399179163,1815653,-1.02,-0.17,-0.36,83.68,-74.77,-19.84
1777399179163,1815663,-0.78,-0.49,-0.39,118.16,-62.32,-18.98
1777399179163,1815673,-0.62,-0.84,-0.44,153.38,-38.82,-14.89
1777399179163,1815683,-0.78,0.46,0.21,176.64,-32.17,-19.35
1777399179163,1815693,-0.71,-0.25,0.17,145.39,-41.32,19.47
1777399179163,1815703,-0.88,-1.01,-0.52,122.92,-35.03,45.41
1777399179163,1815713,-0.90,-0.64,0.03,164.25,-18.86,22.09
1777399179163,1815723,-1.02,0.09,0.03,166.56,-18.74,5.19
1777399179164,1815733,-1.02,-0.32,-0.12,123.90,-13.73,3.60
1777399179164,1815743,-0.99,-0.28,-0.12,109.50,-1.77,-18.62
1777399179164,1815753,-0.89,-0.25,-0.10,97.23,1.46,-28.99
1777399179164,1815763,-0.88,-0.24,0.10,83.19,-1.28,-24.11
1777399179164,1815773,-0.83,-0.30,-0.31,69.27,-14.65,-14.47
1777399179164,1815783,-1.02,-0.35,-0.09,56.09,-11.78,-1.22
1777399179164,1815793,-1.03,-0.40,-0.17,54.81,-10.93,2.69
1777399179164,1815803,-1.02,-0.38,-0.11,71.04,-11.47,-3.60
1777399179165,1815813,-0.93,-0.35,-0.15,82.28,-13.49,-9.09
1777399179165,1815823,-0.93,-0.34,-0.18,100.65,-9.77,-0.92
1777399179165,1815843,-0.96,-0.21,-0.06,77.15,-10.99,4.15
1777399179166,1815863,-0.92,-0.43,0.04,56.95,-32.84,-2.14
1777399179166,1815883,-0.88,-0.42,-0.01,58.72,-40.16,7.14
1777399179166,1815893,-0.96,-0.52,-0.02,75.99,-36.87,13.31
1777399179166,1815903,-0.90,-0.45,0.08,105.90,-27.04,13.79
1777399179167,1815913,-0.93,-0.12,0.05,132.14,-21.67,11.66
1777399179167,1815923,-0.82,-0.23,-0.07,134.64,-21.36,8.67
1777399179167,1815933,-0.87,-0.63,-0.05,156.37,-11.54,0.67
1777399179168,1815943,-0.92,-0.47,0.06,189.21,-5.55,-21.61
1777399179168,1815953,-0.98,-0.29,0.09,216.13,-7.08,-45.96
1777399179168,1815963,-0.92,-0.14,-0.01,210.02,-9.03,-64.09
1777399179168,1815973,-0.97,-0.14,-0.22,174.26,-12.02,-63.78
1777399179168,1815983,-0.98,-0.19,-0.16,142.58,-10.74,-61.40
1777399179168,1815993,-0.87,-0.19,-0.08,126.83,-10.50,-48.16
1777399179169,1816003,-0.80,-0.17,-0.12,102.72,-0.85,-34.97
1777399179169,1816013,-0.91,-0.03,-0.25,71.41,18.01,-26.49
1777399179169,1816023,-0.75,-0.16,-0.31,60.42,35.10,-9.46
1777399179169,1816033,-0.80,-0.23,-0.22,110.41,75.68,-5.62
1777399179169,1816043,-0.68,-0.11,-0.14,148.13,124.57,6.90
1777399179170,1816053,-0.81,-0.53,0.08,139.83,134.22,31.74
1777399179170,1816063,-1.00,-0.54,0.76,168.64,122.80,29.17
1777399179170,1816073,-0.98,-0.08,0.28,238.77,71.66,12.94
1777399179170,1816083,-1.19,-0.01,-0.20,269.78,17.40,2.93
1777399179170,1816093,-1.25,-0.64,0.01,205.99,-22.22,9.34
1777399179170,1816103,-1.00,-0.69,0.46,168.70,21.30,21.97
1777399179171,1816113,-0.82,-0.10,0.14,124.45,55.24,4.03
1777399179171,1816123,-0.82,-0.20,0.14,89.84,47.97,-25.02
1777399179171,1816133,-0.66,-0.22,0.31,103.03,41.63,-50.42
1777399179171,1816143,-0.66,-0.37,0.25,111.21,26.61,-84.53
1777399179171,1816153,-1.22,-0.60,-0.34,57.80,1.40,-78.37
1777399179171,1816163,-1.37,-0.65,0.06,5.55,-5.49,19.10
1777399179171,1816183,-0.80,-0.47,0.12,32.04,-16.11,25.45
1777399179171,1816203,-0.91,-0.34,0.19,49.13,-19.65,20.51
1777399179171,1816223,-0.91,-0.24,0.20,48.95,-24.90,14.47
1777399179172,1816243,-0.92,-0.33,-0.10,63.48,-30.94,-20.94
1777399179172,1816253,-0.91,-0.35,-0.25,59.02,-28.38,-33.75
1777399179172,1816263,-0.90,-0.50,-0.23,44.25,-10.19,-33.51
1777399179172,1816273,-0.86,-0.26,-0.16,35.16,12.88,-21.85
1777399179172,1816283,-0.84,-0.25,-0.01,34.42,26.73,1.89
1777399179172,1816293,-0.88,-0.31,0.18,40.34,27.34,19.90
1777399179172,1816303,-0.50,-0.33,0.37,40.47,11.60,19.84
1777399179172,1816313,-0.85,-0.45,0.39,8.06,7.26,8.42
1777399179172,1816323,-0.95,-0.43,0.29,-83.31,-14.59,-19.65
1777399179172,1816333,-0.69,-0.25,0.04,-152.34,-41.14,-65.67
1777399179173,1816343,-0.86,0.07,-0.05,-139.71,-37.35,-99.67
1777399179173,1816353,-1.11,-0.07,-0.02,-126.10,-11.11,-91.80
1777399179173,1816363,-1.16,-0.39,0.10,-110.05,0.24,-57.13
1777399179173,1816373,-1.12,-0.64,0.61,-92.41,-6.35,-26.92
1777399179174,1816383,-1.11,-0.79,0.75,-78.00,-36.99,-21.79
1777399179174,1816393,-0.87,-0.42,-0.02,-57.19,-76.78,-25.15
1777399179174,1816403,-0.84,-0.44,0.02,-81.97,-85.57,-20.08
1777399179174,1816413,-0.83,-0.53,-0.06,-70.74,-72.94,-12.02
1777399179174,1816423,-0.85,-0.27,0.11,-29.42,-48.22,-12.15
1777399179175,1816433,-0.83,-0.22,0.11,-17.58,-30.27,-8.24
1777399179175,1816443,-0.98,-0.38,0.17,-27.40,-15.14,0.00
1777399179175,1816453,-0.98,-0.34,0.18,-32.65,-7.26,-1.95
1777399179175,1816463,-1.05,-0.45,0.39,-37.54,-14.04,-6.71
1777399179175,1816473,-1.10,-0.35,0.32,-0.43,-17.33,-10.93
1777399179175,1816483,-0.99,-0.26,0.17,36.68,5.00,-14.47
1777399179175,1816493,-0.89,-0.24,0.21,23.32,38.64,-14.95
1777399179176,1816503,-0.95,-0.33,0.13,-3.36,65.98,-8.79
1777399179176,1816513,-1.01,-0.33,0.06,-20.02,102.60,-24.35
1777399179176,1816533,-0.93,-0.41,0.01,21.91,95.83,-17.58
1777399179176,1816553,-0.93,-0.43,-0.05,26.37,63.90,-17.27
1777399179176,1816573,-1.04,-0.27,-0.01,44.56,73.30,-27.65
1777399179177,1816583,-0.99,-0.19,0.06,36.74,78.80,-30.94
1777399179177,1816593,-0.96,-0.06,0.02,31.01,76.78,-24.11
1777399179178,1816603,-0.85,-0.15,-0.03,34.85,67.93,-7.51
1777399179178,1816613,-0.82,-0.28,-0.16,40.47,55.36,8.79
1777399179179,1816623,-0.42,-0.13,-0.25,38.21,42.79,22.52
1777399179179,1816633,-0.44,-0.26,-0.33,10.07,36.87,57.19
1777399179179,1816643,-0.97,-0.59,-0.20,-33.81,36.32,83.50
1777399179179,1816653,-1.27,-0.84,-0.03,-40.65,14.16,74.10
1777399179179,1816663,-1.15,-0.78,-0.15,-23.07,-10.19,36.07
1777399179179,1816673,-0.82,-0.50,-0.30,1.77,-15.20,-1.22
1777399179179,1816683,-0.59,-0.60,-0.16,14.65,-2.75,-15.81
1777399179180,1816693,-0.50,-0.10,-0.26,12.82,7.69,-23.19
1777399179180,1816703,-0.84,-0.22,-0.19,-9.58,20.69,1.34
1777399179180,1816713,-1.22,-0.40,-0.08,-22.89,21.42,20.26
1777399179180,1816723,-1.17,-0.59,-0.06,-8.97,0.73,12.51
1777399179180,1816733,-0.77,-0.45,-0.20,15.08,-16.17,-3.66
1777399179180,1816743,-0.80,-0.44,-0.27,25.63,-16.66,-7.32
1777399179180,1816753,-0.88,-0.46,-0.20,18.07,-11.05,-8.73
1777399179180,1816763,-0.89,-0.45,-0.09,5.92,-11.66,-10.68
1777399179180,1816773,-0.92,-0.40,-0.08,0.55,-19.53,-8.97
1777399179180,1816783,-0.93,-0.41,-0.13,-1.59,-29.17,-5.25
1777399179181,1816793,-0.94,-0.43,-0.17,0.49,-33.02,-4.46
1777399179181,1816803,-0.92,-0.44,-0.19,7.81,-28.99,-6.84
1777399179181,1816813,-0.91,-0.46,-0.16,13.49,-20.87,-9.70
1777399179181,1816823,-0.90,-0.43,-0.11,15.69,-13.49,-12.51
1777399179181,1816833,-0.88,-0.38,-0.09,15.50,-11.66,-12.76
1777399179181,1816843,-0.88,-0.38,-0.10,14.77,-14.71,-8.48
1777399179182,1816853,-0.89,-0.39,-0.11,14.10,-17.94,1.46
1777399179182,1816873,-0.90,-0.40,-0.09,8.85,-14.65,2.75
1777399179183,1816893,-0.92,-0.38,-0.04,7.45,-9.52,-8.85
1777399179183,1816913,-0.91,-0.39,-0.03,6.29,-8.91,-16.85
1777399179183,1816933,-0.90,-0.38,-0.04,4.82,-9.34,-21.67
1777399179183,1816943,-0.89,-0.40,-0.03,5.68,-10.44,-21.85
1777399179184,1816953,-0.89,-0.41,-0.05,3.60,-12.39,-21.79
1777399179184,1816963,-0.88,-0.39,-0.06,1.89,-13.37,-20.32
1777399179184,1816973,-0.88,-0.39,-0.07,2.69,-12.33,-17.09
1777399179184,1816983,-0.88,-0.40,-0.06,3.78,-11.05,-14.77
1777399179185,1816993,-0.87,-0.40,-0.05,4.21,-10.86,-14.40
1777399179185,1817003,-0.88,-0.41,-0.05,3.05,-12.15,-15.69
1777399179185,1817013,-0.87,-0.42,-0.04,0.61,-13.55,-18.74
1777399179185,1817023,-0.86,-0.41,-0.05,-1.89,-14.53,-21.91
1777399179186,1817033,-0.85,-0.41,-0.06,-3.85,-14.16,-23.56
1777399179186,1817043,-0.83,-0.42,-0.05,-5.86,-12.82,-24.05
1777399179186,1817053,-0.82,-0.42,-0.05,-6.90,-11.35,-23.07
1777399179186,1817063,-0.82,-0.42,-0.06,-6.10,-11.05,-19.96
1777399179187,1817073,-0.82,-0.43,-0.06,-3.48,-11.78,-15.56
1777399179187,1817083,-0.82,-0.44,-0.06,1.16,-12.08,-11.41
1777399179187,1817093,-0.81,-0.44,-0.04,3.54,-12.15,-8.12
1777399179187,1817103,-0.82,-0.45,-0.02,3.23,-12.39,-5.74
1777399179187,1817113,-0.84,-0.44,-0.01,2.44,-13.49,-4.27
1777399179187,1817123,-0.86,-0.44,-0.00,2.56,-14.40,-4.70
1777399179188,1817133,-0.87,-0.44,0.03,2.93,-13.98,-6.35
1777399179188,1817143,-0.88,-0.45,0.03,-0.06,-14.40,-8.73
1777399179188,1817153,-0.88,-0.45,0.02,-5.07,-15.26,-11.54
1777399179188,1817163,-0.87,-0.44,-0.01,-7.39,-14.22,-12.51
1777399179188,1817173,-0.87,-0.44,-0.03,-6.65,-10.93,-10.74
1777399179188,1817183,-0.86,-0.44,-0.02,-4.64,-6.90,-7.39
1777399179189,1817193,-0.86,-0.43,-0.02,-3.05,-3.60,-2.26
1777399179189,1817203,-0.88,-0.43,-0.02,-0.85,-1.46,5.07
1777399179189,1817223,-0.90,-0.42,-0.01,3.66,-5.19,-1.34
1777399179189,1817243,-0.90,-0.42,-0.02,0.00,-12.27,-9.34
1777399179189,1817263,-0.89,-0.41,-0.04,-0.31,-12.76,-10.93
1777399179190,1817273,-0.89,-0.42,-0.05,0.85,-10.44,-9.16
1777399179190,1817283,-0.88,-0.42,-0.05,3.05,-6.04,-6.41
1777399179191,1817293,-0.88,-0.42,-0.04,5.25,-0.67,-3.30
1777399179191,1817303,-0.88,-0.42,-0.02,5.86,2.62,-0.92
1777399179191,1817313,-0.88,-0.43,0.00,5.55,3.05,0.06
1777399179191,1817323,-0.88,-0.44,0.02,3.66,0.73,-0.85
1777399179192,1817333,-0.87,-0.44,0.02,0.43,-4.09,-3.91
1777399179192,1817343,-0.86,-0.43,0.00,-2.56,-9.70,-7.02
1777399179193,1817353,-0.86,-0.43,-0.02,-3.36,-12.76,-8.79
1777399179193,1817363,-0.85,-0.42,-0.03,-2.26,-11.05,-8.36
1777399179193,1817373,-0.86,-0.41,-0.05,-0.98,-6.16,-6.16
1777399179194,1817383,-0.89,-0.39,-0.09,0.85,1.34,-1.65
1777399179195,1817393,-0.92,-0.38,-0.11,5.07,11.72,6.47
1777399179195,1817403,-0.93,-0.37,-0.09,12.02,21.97,14.40
1777399179195,1817413,-0.95,-0.35,-0.07,16.66,28.26,19.23
1777399179195,1817423,-0.97,-0.35,-0.05,16.97,27.47,20.51
1777399179195,1817433,-0.99,-0.35,-0.08,14.77,18.98,17.40
1777399179196,1817443,-1.01,-0.35,-0.09,13.49,6.59,11.72
1777399179196,1817453,-1.02,-0.37,-0.11,15.81,-5.86,4.82
1777399179196,1817463,-1.02,-0.45,-0.08,20.20,-15.01,-1.83
1777399179200,1817473,-1.03,-0.62,-0.00,25.88,-21.00,-7.87
1777399179200,1817483,-1.08,-0.97,0.19,36.13,-28.56,-11.72
1777399179201,1817493,-1.09,-1.72,0.58,53.22,-42.18,-15.63
1777399179203,1817503,-0.94,-2.99,1.34,79.65,-67.93,-32.84
1777399179213,1817513,-0.83,-4.00,2.17,95.03,-116.88,-76.17
1777399179223,1817523,-0.57,-4.00,2.43,69.58,-174.68,-123.66
1777399179233,1817533,-0.01,-4.00,2.27,-7.14,-179.32,-139.59
1777399179243,1817543,0.43,-4.00,1.76,-88.26,-104.74,-71.04
1777399179263,1817563,1.38,-4.00,1.24,-161.62,65.55,192.69
1777399179283,1817583,1.80,-1.00,0.74,-173.83,-62.38,586.06
1777399179303,1817603,0.54,2.36,0.67,-147.09,25.21,716.80
1777399179323,1817623,1.16,4.00,1.31,-277.65,99.00,386.60
1777399179333,1817633,0.54,4.00,0.30,-418.64,-62.99,252.20
1777399179343,1817643,0.07,4.00,-0.62,-423.03,-197.94,203.86
1777399179353,1817653,-1.10,4.00,-0.93,-322.88,-223.51,189.94
1777399179363,1817663,-2.41,4.00,-1.18,-235.29,-215.88,153.08
1777399179373,1817673,-2.51,4.00,-1.69,-150.63,-193.73,57.31
1777399179383,1817683,-1.65,3.99,-1.77,-80.51,-120.61,-90.76
1777399179393,1817693,-0.49,3.51,-1.49,-9.03,-32.90,-211.43
1777399179403,1817703,0.29,2.87,-0.87,66.41,17.27,-262.82
1777399179413,1817713,0.69,2.26,-0.04,136.66,24.23,-271.30
1777399179423,1817723,0.78,1.89,0.59,184.75,0.24,-270.51
1777399179433,1817733,0.71,1.57,0.87,191.65,-26.79,-267.15
1777399179443,1817743,0.60,1.29,0.94,180.18,-32.17,-263.18
1777399179453,1817753,0.48,1.09,0.85,176.64,-13.12,-254.82
1777399179463,1817763,0.33,0.89,0.79,188.42,21.67,-236.88
1777399179473,1817773,0.20,0.66,0.76,212.34,58.84,-218.08
1777399179483,1817783,0.23,0.57,0.94,234.56,84.47,-205.14
1777399179493,1817793,0.22,0.38,1.06,225.52,88.56,-185.24
1777399179503,1817803,0.07,0.00,0.93,184.63,76.97,-166.20
1777399179513,1817813,-0.02,-0.19,0.86,149.78,64.82,-162.90
1777399179523,1817823,-0.13,-0.33,0.83,128.91,52.73,-164.06
1777399179533,1817833,-0.24,-0.50,0.80,112.79,37.35,-161.01
1777399179543,1817843,-0.30,-0.63,0.69,97.90,22.95,-154.17
1777399179553,1817853,-0.36,-0.74,0.57,82.64,18.62,-143.19
1777399179563,1817863,-0.40,-0.82,0.42,73.73,22.46,-128.97
1777399179573,1817873,-0.44,-0.86,0.35,74.83,30.33,-116.46
1777399179583,1817883,-0.55,-0.93,0.35,83.98,35.03,-108.15
1777399179593,1817893,-0.65,-0.92,0.55,94.48,31.07,-73.67
1777399179613,1817913,-0.98,-1.09,0.65,18.68,-4.15,-40.10
1777399179633,1817933,-1.05,-1.21,0.51,-30.03,4.39,-66.35
1777399179653,1817953,-0.99,-1.00,0.36,-40.41,13.79,-70.80
1777399179673,1817973,-0.92,-1.08,0.41,-15.14,32.10,-25.02
1777399179683,1817983,-0.84,-1.08,0.31,0.73,35.83,0.98
1777399179693,1817993,-0.79,-1.29,0.44,7.87,37.29,22.71
1777399179703,1818003,-0.80,-1.34,0.40,4.76,26.73,28.93
1777399179713,1818013,-0.82,-1.21,0.36,-13.98,13.37,24.17
1777399179723,1818023,-0.87,-0.99,0.33,-30.94,4.70,15.44
1777399179733,1818033,-0.87,-0.89,0.25,-32.90,4.94,10.38
1777399179743,1818043,-0.88,-0.88,0.11,-22.46,13.67,6.35
1777399179753,1818053,-0.86,-0.89,0.04,-9.16,30.27,1.83
1777399179763,1818063,-0.86,-0.84,0.06,1.95,44.98,-1.40
1777399179773,1818073,-0.84,-0.78,0.08,9.28,48.40,0.24
1777399179783,1818083,-0.85,-0.75,0.12,9.77,38.88,6.23
1777399179793,1818093,-0.85,-0.75,0.12,5.13,18.80,11.35
1777399179803,1818103,-0.84,-0.70,0.10,-0.92,-6.23,11.96
1777399179813,1818113,-0.85,-0.61,0.07,-7.20,-30.27,10.19
1777399179823,1818123,-0.88,-0.54,0.06,-12.15,-47.24,8.79
1777399179833,1818133,-0.89,-0.47,0.04,-13.31,-54.50,7.87
1777399179843,1818143,-0.92,-0.41,0.02,-13.55,-53.28,8.30
1777399179853,1818153,-0.94,-0.35,0.01,-9.95,-44.37,10.44
1777399179863,1818163,-0.96,-0.31,0.01,-3.42,-29.60,11.90
1777399179873,1818173,-0.99,-0.31,0.06,-0.31,-13.98,10.50
1777399179883,1818183,-0.99,-0.33,0.08,0.73,-4.82,5.80
1777399179893,1818193,-0.95,-0.32,0.08,1.16,-2.44,-0.06
1777399179903,1818203,-0.91,-0.30,0.10,0.37,-5.49,-5.31
1777399179913,1818213,-0.89,-0.30,0.11,-4.21,-14.65,-8.73
1777399179923,1818223,-0.87,-0.32,0.07,-11.29,-26.73,-10.50
1777399179933,1818233,-0.84,-0.32,-0.01,-13.98,-33.57,-11.23
1777399179953,1818253,-0.79,-0.34,-0.07,5.25,-3.54,0.79
1777399179973,1818273,-0.81,-0.43,0.06,14.95,14.40,6.35
1777399179993,1818293,-0.86,-0.42,0.10,11.35,14.95,1.46
