host_time_ms,arduino_time_ms,ax,ay,az,gx,gy,gz
1777399169298,1802373,-0.84,-0.33,-0.27,14.34,11.05,-29.17
1777399169299,1802393,-0.79,-0.32,-0.19,-4.46,-24.78,-23.99
1777399169299,1802413,-0.76,-0.34,-0.25,-14.71,-35.83,-7.32
1777399169299,1802433,-0.80,-0.38,-0.35,-17.88,-20.87,0.18
1777399169300,1802443,-0.83,-0.39,-0.36,-9.03,-8.24,-3.05
1777399169300,1802453,-0.86,-0.39,-0.35,5.37,2.62,-10.44
1777399169300,1802463,-0.87,-0.36,-0.30,18.49,9.09,-21.06
1777399169300,1802473,-0.85,-0.32,-0.25,25.88,10.62,-29.66
1777399169300,1802483,-0.85,-0.30,-0.20,27.16,8.24,-31.49
1777399169301,1802493,-0.84,-0.31,-0.16,24.23,3.11,-26.86
1777399169301,1802503,-0.85,-0.29,-0.13,18.49,-3.36,-20.02
1777399169301,1802513,-0.87,-0.30,-0.12,10.86,-10.62,-12.57
1777399169301,1802523,-0.88,-0.30,-0.15,2.87,-18.43,-7.32
1777399169302,1802533,-0.89,-0.31,-0.19,-2.44,-23.07,-5.00
1777399169302,1802543,-0.89,-0.33,-0.25,-2.81,-22.89,-6.90
1777399169302,1802553,-0.90,-0.35,-0.28,1.83,-17.76,-10.56
1777399169302,1802563,-0.91,-0.36,-0.27,9.03,-10.25,-14.53
1777399169303,1802573,-0.90,-0.35,-0.24,13.98,-4.76,-18.43
1777399169303,1802583,-0.89,-0.35,-0.22,14.22,-2.56,-20.51
1777399169303,1802593,-0.87,-0.36,-0.22,12.02,-1.89,-20.02
1777399169303,1802603,-0.86,-0.38,-0.22,8.79,-1.89,-16.97
1777399169304,1802613,-0.84,-0.38,-0.23,5.49,-2.01,-12.02
1777399169304,1802623,-0.84,-0.38,-0.22,2.01,-1.10,-5.62
1777399169304,1802633,-0.85,-0.37,-0.22,-1.34,-0.31,1.89
1777399169304,1802643,-0.88,-0.35,-0.23,-4.82,0.12,7.69
1777399169305,1802653,-0.90,-0.35,-0.25,-7.39,1.77,10.31
1777399169305,1802663,-0.92,-0.34,-0.27,-7.39,5.25,9.64
1777399169305,1802673,-0.94,-0.32,-0.27,-5.49,8.85,6.47
1777399169305,1802683,-0.94,-0.31,-0.26,-2.20,10.99,3.11
1777399169305,1802693,-0.94,-0.30,-0.23,0.55,10.74,-0.12
1777399169306,1802703,-0.94,-0.28,-0.19,1.22,-9.40,-6.04
1777399169306,1802723,-0.88,-0.31,-0.19,-7.26,-21.00,-4.70
1777399169306,1802743,-0.81,-0.34,-0.28,-8.73,-18.49,1.22
1777399169306,1802763,-0.86,-0.33,-0.30,-4.70,-0.43,2.38
1777399169307,1802773,-0.87,-0.33,-0.29,-0.73,8.54,0.18
1777399169307,1802783,-0.89,-0.31,-0.27,3.91,15.50,-2.69
1777399169307,1802793,-0.91,-0.29,-0.24,7.32,18.98,-5.68
1777399169307,1802803,-0.92,-0.26,-0.21,10.07,17.58,-6.65
1777399169308,1802813,-0.93,-0.26,-0.19,11.84,12.21,-5.31
1777399169308,1802823,-0.91,-0.25,-0.19,11.35,4.64,-3.23
1777399169308,1802833,-0.90,-0.25,-0.20,9.64,-2.87,-0.31
1777399169308,1802843,-0.88,-0.26,-0.21,7.81,-8.18,3.23
1777399169309,1802853,-0.88,-0.25,-0.21,6.04,-10.93,4.82
1777399169309,1802863,-0.88,-0.25,-0.23,4.82,-13.00,3.30
1777399169309,1802873,-0.88,-0.25,-0.24,5.62,-14.04,-0.55
1777399169309,1802883,-0.87,-0.25,-0.25,8.48,-13.18,-5.37
1777399169310,1802893,-0.85,-0.25,-0.24,11.05,-10.80,-11.41
1777399169310,1802903,-0.82,-0.27,-0.24,11.11,-7.14,-16.17
1777399169310,1802913,-0.78,-0.30,-0.27,10.68,-2.93,-16.78
1777399169310,1802923,-0.77,-0.32,-0.28,11.90,2.01,-15.56
1777399169311,1802933,-0.78,-0.32,-0.28,14.16,7.26,-13.43
1777399169311,1802943,-0.82,-0.33,-0.26,16.91,10.31,-9.40
1777399169311,1802953,-0.86,-0.33,-0.25,19.53,9.64,-4.70
1777399169311,1802963,-0.89,-0.33,-0.24,21.12,5.80,-1.46
1777399169312,1802973,-0.91,-0.32,-0.23,21.97,0.24,0.06
1777399169312,1802983,-0.93,-0.32,-0.22,22.34,-6.41,-0.43
1777399169312,1802993,-0.94,-0.32,-0.21,21.85,-13.67,-2.50
1777399169312,1803003,-0.92,-0.32,-0.21,20.69,-21.12,-5.37
1777399169312,1803013,-0.91,-0.33,-0.23,19.47,-27.16,-7.75
1777399169313,1803023,-0.91,-0.33,-0.23,19.10,-29.97,-8.36
1777399169313,1803033,-0.92,-0.33,-0.23,18.49,-30.64,-7.51
1777399169313,1803043,-0.92,-0.34,-0.24,15.87,-30.58,-6.04
1777399169313,1803063,-0.90,-0.35,-0.29,6.71,-20.51,-8.61
1777399169314,1803083,-0.89,-0.33,-0.30,3.60,-5.19,-9.64
1777399169314,1803103,-0.91,-0.34,-0.27,2.69,-1.71,-12.33
1777399169314,1803123,-0.89,-0.35,-0.24,3.66,-11.11,-21.91
1777399169314,1803133,-0.87,-0.37,-0.23,5.55,-17.27,-27.10
1777399169314,1803143,-0.83,-0.39,-0.23,7.32,-24.05,-30.82
1777399169315,1803153,-0.80,-0.40,-0.22,9.40,-30.52,-31.80
1777399169315,1803163,-0.78,-0.39,-0.22,11.54,-36.32,-29.85
1777399169315,1803173,-0.78,-0.35,-0.19,13.18,-40.28,-25.70
1777399169315,1803183,-0.81,-0.35,-0.18,13.79,-42.79,-19.35
1777399169315,1803193,-0.84,-0.34,-0.18,12.88,-43.58,-14.16
1777399169316,1803203,-0.87,-0.29,-0.19,12.15,-41.81,-11.84
1777399169316,1803213,-0.77,0.03,-0.02,15.87,-37.96,-5.62
1777399169316,1803223,-0.91,-0.27,-0.11,31.80,-36.62,9.09
1777399169316,1803233,-0.95,-0.41,-0.02,43.15,-35.22,10.19
1777399169316,1803243,-1.00,-0.28,0.05,52.43,-41.08,1.22
1777399169317,1803253,-1.01,-0.31,0.07,53.77,-43.33,3.23
1777399169317,1803263,-1.04,-0.41,0.09,50.78,-37.48,5.98
1777399169317,1803273,-1.05,-0.39,0.10,38.45,-29.11,2.20
1777399169317,1803283,-0.99,-0.40,0.09,17.15,-22.34,1.59
1777399169317,1803293,-0.95,-0.48,0.01,-7.02,-15.26,7.81
1777399169318,1803303,-0.96,-0.51,-0.06,-22.22,-3.05,17.52
1777399169318,1803313,-1.06,-0.49,-0.05,-23.68,14.47,30.64
1777399169318,1803323,-1.19,-0.42,0.02,-19.35,31.19,43.21
1777399169318,1803333,-1.32,-0.37,0.07,-17.40,36.25,45.10
1777399169319,1803343,-1.41,-0.28,0.10,-16.97,28.81,32.17
1777399169319,1803353,-1.36,-0.27,0.02,-16.85,10.74,11.47
1777399169319,1803363,-1.21,-0.29,-0.04,-14.89,-5.92,-8.06
1777399169319,1803373,-1.08,-0.35,-0.09,-11.35,-14.28,-15.81
1777399169319,1803383,-0.97,-0.36,-0.07,-8.48,-12.57,-14.47
1777399169320,1803393,-0.90,-0.35,0.01,-13.67,9.52,-6.23
1777399169320,1803413,-0.75,-0.44,-0.11,-27.16,18.68,-9.22
1777399169320,1803433,-0.81,-0.44,-0.11,-11.78,19.59,-10.50
1777399169320,1803453,-0.77,-0.36,-0.16,-19.23,-10.50,-6.29
1777399169320,1803473,-0.70,-0.36,-0.31,-29.66,-37.05,2.32
1777399169321,1803483,-0.70,-0.37,-0.33,-21.73,-32.65,5.86
1777399169321,1803493,-0.76,-0.35,-0.25,-10.62,-17.40,8.42
1777399169321,1803503,-0.83,-0.34,-0.16,-3.60,-3.78,11.35
1777399169321,1803513,-0.89,-0.35,-0.12,-0.85,1.89,12.51
1777399169321,1803523,-0.94,-0.35,-0.09,0.06,-0.31,10.62
1777399169322,1803533,-0.97,-0.33,-0.10,-1.34,-10.38,8.24
1777399169322,1803543,-0.98,-0.32,-0.14,-1.40,-24.29,6.23
1777399169323,1803553,-0.99,-0.29,-0.17,-0.31,-37.41,2.69
1777399169323,1803563,-0.97,-0.29,-0.23,0.49,-46.57,-0.98
1777399169323,1803573,-0.94,-0.31,-0.29,3.97,-48.65,-2.69
1777399169323,1803583,-0.91,-0.32,-0.32,12.39,-42.30,-3.36
1777399169323,1803593,-0.88,-0.31,-0.31,22.58,-29.85,-3.36
1777399169323,1803603,-0.87,-0.31,-0.29,30.88,-16.36,-1.65
1777399169324,1803613,-0.86,-0.32,-0.25,36.87,-5.74,1.04
1777399169324,1803623,-0.86,-0.31,-0.21,40.34,-0.67,4.21
1777399169324,1803633,-0.88,-0.31,-0.14,43.46,-2.20,8.00
1777399169324,1803643,-0.90,-0.29,-0.07,45.29,-9.16,9.03
1777399169324,1803653,-0.93,-0.30,-0.02,42.91,-18.80,6.90
1777399169324,1803663,-0.96,-0.32,0.02,37.90,-29.91,3.05
1777399169325,1803673,-0.97,-0.35,0.02,34.12,-40.59,-0.06
1777399169325,1803683,-0.94,-0.28,0.02,32.71,-49.68,-1.95
1777399169325,1803693,-0.91,-0.29,0.03,34.67,-53.28,-2.26
1777399169325,1803703,-0.86,-0.30,0.05,38.39,-46.75,-0.61
1777399169325,1803713,-0.85,-0.30,0.09,38.70,-33.14,2.08
1777399169325,1803723,-0.87,-0.29,0.13,35.22,-17.52,5.86
1777399169326,1803733,-0.91,-0.28,0.17,27.47,-4.58,8.67
1777399169326,1803753,-0.97,-0.27,0.15,0.92,-1.89,8.12
1777399169326,1803773,-0.99,-0.27,0.04,-0.98,-11.72,4.58
1777399169326,1803793,-1.01,-0.26,-0.01,1.22,-26.98,4.15
1777399169326,1803813,-0.97,-0.24,-0.03,8.42,-35.28,2.26
1777399169327,1803823,-0.96,-0.25,-0.03,9.64,-33.45,2.69
1777399169327,1803833,-0.95,-0.25,-0.04,8.85,-28.50,3.17
1777399169327,1803843,-0.95,-0.25,-0.04,8.30,-22.52,3.85
1777399169327,1803853,-0.95,-0.26,-0.04,9.28,-18.13,5.37
1777399169327,1803863,-0.96,-0.28,-0.05,11.23,-16.17,7.32
1777399169327,1803873,-0.97,-0.27,-0.04,14.04,-16.66,8.36
1777399169328,1803883,-0.99,-0.27,0.00,15.87,-20.08,8.30
1777399169328,1803893,-0.99,-0.28,0.01,15.99,-28.20,8.00
1777399169328,1803903,-0.97,-0.28,0.01,14.71,-38.15,7.93
1777399169328,1803913,-0.92,-0.26,0.00,13.00,-47.12,9.28
1777399169328,1803923,-0.87,-0.25,0.01,10.68,-52.92,13.73
1777399169328,1803933,-0.86,-0.23,0.03,7.63,-54.50,21.06
1777399169329,1803943,-0.88,-0.23,0.06,3.91,-53.22,27.47
1777399169329,1803953,-0.89,-0.22,0.08,0.61,-50.42,28.63
1777399169329,1803963,-0.91,-0.23,0.11,-2.26,-46.94,24.48
1777399169329,1803973,-0.93,-0.23,0.15,-3.54,-45.10,17.46
1777399169329,1803983,-0.94,-0.26,0.18,-2.87,-45.29,10.80
1777399169329,1803993,-0.95,-0.27,0.22,-1.71,-45.41,6.29
1777399169330,1804003,-0.94,-0.26,0.26,-2.81,-46.39,4.39
1777399169330,1804013,-0.92,-0.25,0.27,-6.04,-47.30,5.19
1777399169330,1804023,-0.90,-0.24,0.27,-9.89,-46.63,8.36
1777399169330,1804033,-0.90,-0.23,0.27,-14.10,-43.33,12.02
1777399169330,1804043,-0.91,-0.23,0.27,-18.49,-38.82,14.22
1777399169330,1804053,-0.89,-0.22,0.24,-21.36,-33.33,14.04
1777399169331,1804063,-0.87,-0.24,0.19,-19.71,-24.90,13.18
1777399169331,1804073,-0.87,-0.26,0.15,-11.84,-10.99,11.78
1777399169331,1804083,-0.89,-0.26,0.16,0.73,22.09,4.94
1777399169331,1804103,-0.92,-0.23,0.27,18.19,42.54,-0.24
1777399169331,1804123,-0.99,-0.18,0.33,-5.49,45.84,5.00
1777399169331,1804143,-1.00,-0.13,0.29,-19.84,41.87,12.27
1777399169331,1804163,-0.95,-0.22,0.17,-39.18,40.95,10.25
1777399169332,1804173,-0.98,-0.26,0.09,-36.56,46.81,7.32
1777399169332,1804183,-0.95,-0.28,0.08,-31.37,51.82,2.93
1777399169332,1804193,-0.97,-0.27,0.09,-33.20,54.02,-1.34
1777399169332,1804203,-1.01,-0.21,0.12,-43.15,54.50,-4.88
1777399169332,1804213,-0.89,-0.16,0.11,-59.57,52.06,-2.93
1777399169333,1804223,-0.99,-0.16,0.06,-78.12,48.34,4.33
1777399169333,1804233,-0.97,-0.25,-0.08,-67.32,41.63,9.03
1777399169333,1804243,-0.97,-0.20,-0.15,-51.27,38.39,4.94
1777399169333,1804253,-0.99,-0.16,-0.25,-33.94,36.93,-2.08
1777399169333,1804263,-1.02,-0.13,-0.31,-23.93,38.15,-8.24
1777399169333,1804273,-1.04,-0.11,-0.30,-22.03,39.25,-12.76
1777399169334,1804283,-1.04,-0.15,-0.26,-20.08,35.10,-13.18
1777399169334,1804293,-1.05,-0.25,-0.18,-14.95,25.21,-12.08
1777399169334,1804303,-1.05,-0.35,-0.12,-4.33,12.76,-12.27
1777399169334,1804313,-1.02,-0.41,-0.12,11.35,-0.55,-15.87
1777399169334,1804323,-0.99,-0.44,-0.12,26.79,-11.35,-20.94
1777399169334,1804333,-0.98,-0.43,-0.12,41.56,-20.51,-26.06
1777399169335,1804343,-1.02,-0.36,-0.12,58.72,-28.50,-32.29
1777399169335,1804353,-1.04,-0.25,-0.12,76.29,-34.12,-41.20
1777399169335,1804363,-1.03,0.16,-0.30,90.82,-36.68,-51.45
1777399169335,1804373,-1.05,-0.12,-0.25,109.13,-32.84,-56.40
1777399169335,1804383,-0.94,-0.03,-0.13,89.90,-21.36,-55.48
1777399169335,1804393,-0.96,0.06,-0.07,71.23,-10.07,-48.77
1777399169336,1804403,-0.94,-0.03,-0.07,62.68,0.18,-35.52
1777399169336,1804413,-0.93,-0.07,0.03,52.92,9.34,-25.33
1777399169336,1804423,-0.98,-0.05,0.08,39.98,11.11,-2.75
1777399169336,1804443,-1.02,-0.27,0.10,45.23,-9.09,-19.17
1777399169336,1804463,-0.92,-0.26,0.10,64.64,-28.87,-26.98
1777399169336,1804483,-0.67,-0.38,-0.38,77.39,-18.13,-11.05
1777399169337,1804503,-0.82,-0.06,-0.38,69.58,47.18,-16.54
1777399169337,1804513,-0.84,-0.20,-0.22,53.59,75.68,-12.21
1777399169337,1804523,-0.89,-0.30,-0.02,32.23,94.60,-13.55
1777399169337,1804533,-0.93,-0.38,0.10,20.45,96.92,-20.14
1777399169337,1804543,-1.02,-0.32,0.17,22.58,86.36,-30.21
1777399169337,1804553,-1.07,-0.16,0.18,31.86,66.71,-39.12
1777399169338,1804563,-0.94,-0.12,0.15,33.87,41.63,-47.49
1777399169338,1804573,-1.10,-0.23,0.04,33.45,6.84,-50.78
1777399169338,1804583,-1.13,-0.35,-0.03,18.62,-38.15,-49.50
1777399169338,1804593,-1.09,-0.48,0.05,-1.04,-69.89,-30.33
1777399169338,1804603,-0.93,-0.54,0.16,-10.56,-90.39,-21.00
1777399169338,1804613,-0.81,-0.65,0.05,-32.71,-136.05,-28.63
1777399169339,1804623,-0.85,-0.64,-0.18,-10.68,-131.65,-30.21
1777399169339,1804633,-1.11,-0.26,-0.07,61.95,-17.64,-15.93
1777399169339,1804643,-0.91,-0.31,-0.09,86.00,55.97,5.43
1777399169339,1804653,-0.83,-0.41,0.12,95.89,105.53,10.44
1777399169339,1804663,-0.90,-0.38,0.24,104.25,119.63,-1.28
1777399169339,1804673,-0.95,-0.33,0.25,96.07,91.86,-16.42
1777399169340,1804683,-0.98,-0.35,0.21,74.10,46.81,-24.72
1777399169340,1804693,-0.97,-0.35,0.09,53.28,6.71,-28.44
1777399169340,1804703,-0.85,-0.31,-0.07,45.10,-9.95,-26.73
1777399169340,1804713,-0.78,-0.30,-0.13,47.61,2.26,-13.43
1777399169340,1804723,-0.82,-0.33,-0.19,46.94,19.90,5.92
1777399169340,1804733,-0.88,-0.27,-0.18,53.77,36.74,20.94
1777399169340,1804743,-0.92,-0.20,-0.16,65.31,45.84,33.39
1777399169341,1804753,-0.88,-0.18,-0.13,70.31,43.15,45.23
1777399169341,1804763,-0.87,-0.15,-0.09,71.66,32.59,53.41
1777399169341,1804773,-0.86,-0.15,-0.08,69.89,17.82,57.92
1777399169341,1804793,-0.86,-0.19,-0.09,55.97,-14.77,56.58
1777399169341,1804813,-0.87,-0.34,-0.10,42.60,-22.89,38.64
1777399169341,1804833,-0.90,-0.25,-0.14,22.16,-30.21,6.47
1777399169341,1804853,-0.98,-0.16,-0.05,12.45,-27.16,-12.88
1777399169342,1804863,-1.01,-0.12,0.01,14.53,-26.00,-17.03
1777399169342,1804873,-1.04,-0.12,0.04,18.86,-26.43,-18.49
1777399169342,1804883,-1.05,-0.12,0.07,22.58,-30.82,-21.36
1777399169342,1804893,-1.04,-0.15,0.07,23.86,-38.27,-26.06
1777399169342,1804903,-1.01,-0.18,0.06,21.85,-44.92,-31.92
1777399169342,1804913,-1.00,-0.21,0.06,17.94,-47.97,-39.00
1777399169343,1804923,-1.01,-0.24,0.06,13.31,-47.18,-46.63
1777399169343,1804933,-0.99,-0.26,0.07,9.28,-44.74,-54.87
1777399169343,1804943,-0.95,-0.28,0.07,7.14,-42.85,-62.07
1777399169343,1804953,-0.97,-0.32,0.02,9.22,-41.38,-65.67
1777399169343,1804963,-0.95,-0.28,0.03,15.81,-36.93,-67.99
1777399169343,1804973,-0.88,-0.30,0.00,20.02,-29.60,-64.03
1777399169343,1804983,-0.89,-0.35,-0.07,22.28,-19.84,-55.36
1777399169344,1804993,-0.85,-0.23,-0.00,36.19,-8.12,-50.05
1777399169344,1805003,-0.81,-0.26,0.06,38.94,-2.32,-44.01
1777399169344,1805013,-0.86,-0.36,0.09,22.64,-1.34,-42.11
1777399169344,1805023,-0.88,-0.39,0.11,7.14,-1.04,-45.53
1777399169344,1805033,-0.85,-0.40,0.10,-0.98,0.24,-45.41
1777399169344,1805043,-0.83,-0.43,0.09,-2.69,5.37,-40.22
1777399169345,1805053,-0.83,-0.46,0.05,-1.77,10.44,-33.26
1777399169345,1805063,-0.84,-0.47,0.05,4.15,12.08,-25.76
1777399169345,1805073,-0.83,-0.46,0.05,11.54,7.26,-16.72
1777399169345,1805083,-0.82,-0.46,0.02,13.31,-0.85,-9.77
1777399169345,1805093,-0.84,-0.45,0.01,7.75,-7.08,-6.65
1777399169345,1805103,-0.87,-0.44,0.04,-1.89,-11.84,-7.32
1777399169345,1805113,-0.91,-0.45,0.08,-9.52,-14.53,-8.79
1777399169346,1805133,-0.98,-0.42,0.14,-12.33,-6.90,-12.57
1777399169346,1805153,-0.99,-0.42,0.14,-15.81,-4.82,-15.87
1777399169346,1805173,-0.99,-0.45,0.11,-18.49,-6.35,-14.53
1777399169346,1805193,-0.98,-0.47,0.10,-13.85,-2.38,-8.36
1777399169346,1805203,-1.00,-0.47,0.11,-12.02,1.46,-7.14
1777399169346,1805213,-1.02,-0.46,0.12,-10.99,5.98,-6.84
1777399169346,1805223,-1.03,-0.44,0.11,-8.61,10.44,-5.92
1777399169346,1805233,-1.01,-0.42,0.12,-6.47,13.79,-6.35
1777399169347,1805243,-0.96,-0.42,0.12,-4.70,15.75,-7.02
1777399169347,1805253,-0.91,-0.43,0.11,-1.59,16.91,-5.19
1777399169347,1805263,-0.87,-0.42,0.09,1.65,17.52,-2.32
1777399169347,1805273,-0.84,-0.41,0.08,2.75,17.88,0.67
1777399169347,1805283,-0.82,-0.42,0.08,1.95,18.43,2.32
1777399169347,1805293,-0.79,-0.42,0.09,1.10,18.86,1.40
1777399169347,1805303,-0.76,-0.37,0.08,0.31,19.84,-1.10
1777399169347,1805313,-0.75,-0.37,0.09,0.12,21.06,-2.93
1777399169348,1805323,-0.76,-0.39,0.09,-1.89,19.90,-3.48
1777399169348,1805333,-0.79,-0.41,0.07,-6.65,16.85,-2.38
1777399169348,1805343,-0.80,-0.41,0.05,-9.09,11.72,0.79
1777399169348,1805353,-0.83,-0.41,0.03,-7.93,6.84,4.94
1777399169348,1805363,-0.87,-0.42,0.00,-4.33,4.76,9.40
1777399169348,1805373,-0.89,-0.43,-0.01,0.98,4.88,14.83
1777399169348,1805383,-0.91,-0.42,-0.02,6.29,5.55,19.59
1777399169348,1805393,-0.92,-0.40,-0.01,8.67,5.49,21.79
1777399169349,1805403,-0.94,-0.38,-0.00,8.00,4.52,21.12
1777399169349,1805413,-0.94,-0.38,0.01,5.86,3.11,18.62
1777399169349,1805423,-0.94,-0.37,0.00,4.52,2.01,15.81
1777399169349,1805433,-0.93,-0.36,-0.01,3.97,2.38,13.85
1777399169349,1805443,-0.91,-0.36,-0.04,4.76,5.13,13.18
1777399169349,1805453,-0.90,-0.36,-0.06,7.08,10.38,15.26
1777399169349,1805463,-0.88,-0.38,-0.08,10.13,15.87,23.19
1777399169350,1805483,-0.87,-0.37,-0.07,12.63,19.84,30.27
1777399169350,1805503,-0.88,-0.33,-0.06,11.66,15.14,35.64
1777399169350,1805523,-0.92,-0.30,-0.06,8.54,8.67,38.76
1777399169350,1805543,-1.26,-0.23,0.16,6.77,-2.20,36.99
1777399169350,1805553,-0.95,-0.32,-0.08,7.81,-15.32,35.28
1777399169350,1805563,-0.95,-0.23,-0.03,13.79,-1.04,26.43
1777399169350,1805573,-1.01,-0.20,-0.01,10.93,4.46,24.23
1777399169350,1805583,-1.00,-0.20,0.01,8.54,2.62,24.84
1777399169351,1805593,-1.01,-0.23,0.03,7.26,1.71,24.96
1777399169351,1805603,-0.97,-0.26,-0.00,7.51,2.32,23.25
1777399169351,1805613,-0.96,-0.24,-0.01,8.00,6.59,19.10
1777399169351,1805623,-0.94,-0.24,-0.03,5.62,9.22,16.11
1777399169351,1805633,-0.94,-0.23,-0.04,1.95,9.34,13.49
1777399169351,1805643,-0.94,-0.22,-0.03,-1.89,8.00,11.05
1777399169351,1805653,-0.95,-0.21,-0.03,-5.19,7.39,9.03
1777399169351,1805663,-0.97,-0.22,-0.01,-7.63,8.18,7.02
1777399169352,1805673,-1.01,-0.19,-0.03,-10.01,10.07,5.98
1777399169352,1805683,-1.04,-0.21,0.05,-9.28,16.30,10.93
1777399169352,1805693,-1.03,-0.21,0.04,-4.76,18.37,16.05
1777399169352,1805703,-1.01,-0.22,0.02,-0.24,17.52,19.47
1777399169352,1805713,-0.99,-0.21,-0.03,2.01,15.93,21.12
1777399169352,1805723,-0.97,-0.19,-0.05,3.36,16.05,23.93
1777399169353,1805733,-0.96,-0.21,-0.07,3.97,17.64,25.70
1777399169353,1805743,-0.95,-0.22,-0.08,3.66,20.08,23.86
1777399169353,1805753,-0.93,-0.24,-0.09,1.22,21.12,19.23
1777399169353,1805763,-0.93,-0.23,-0.10,-3.17,21.00,13.06
1777399169353,1805773,-0.94,-0.23,-0.11,-8.54,20.69,7.26
1777399169353,1805783,-0.95,-0.22,-0.11,-13.31,19.84,2.38
1777399169353,1805793,-0.96,-0.20,-0.12,-15.99,19.59,-1.28
1777399169354,1805803,-0.96,-0.20,-0.13,-15.87,20.57,-2.26
1777399169354,1805823,-0.93,-0.17,-0.14,-3.36,28.32,5.31
1777399169354,1805843,-0.93,-0.19,-0.15,-1.34,27.83,6.16
1777399169354,1805863,-0.90,-0.19,-0.18,2.44,21.55,8.42
1777399169354,1805883,-0.92,-0.18,-0.18,-2.69,14.34,7.69
1777399169354,1805893,-0.94,-0.18,-0.17,-5.49,12.39,5.80
1777399169354,1805903,-0.96,-0.17,-0.16,-7.81,12.02,2.75
1777399169354,1805913,-0.97,-0.16,-0.16,-7.81,13.61,0.85
1777399169355,1805923,-0.96,-0.15,-0.17,-4.39,15.44,1.95
1777399169355,1805933,-0.94,-0.14,-0.19,0.92,16.17,5.43
1777399169355,1805943,-0.93,-0.14,-0.20,5.13,14.83,8.85
1777399169355,1805953,-0.92,-0.15,-0.21,6.84,12.27,10.74
1777399169355,1805963,-0.90,-0.15,-0.23,7.63,9.28,11.96
1777399169355,1805973,-0.90,-0.14,-0.24,7.51,6.53,12.27
1777399169355,1805983,-0.91,-0.13,-0.24,6.04,4.09,10.25
1777399169355,1805993,-0.92,-0.14,-0.23,3.85,1.34,7.26
1777399169355,1806003,-0.93,-0.14,-0.23,3.17,-1.83,5.07
1777399169356,1806013,-0.93,-0.13,-0.23,3.54,-4.09,3.05
1777399169356,1806023,-0.93,-0.13,-0.23,3.05,-5.13,0.49
1777399169356,1806033,-0.95,-0.13,-0.21,0.55,-4.58,-3.17
1777399169356,1806043,-0.98,-0.12,-0.19,-1.46,-2.56,-6.35
1777399169356,1806053,-1.00,-0.10,-0.18,-0.24,-0.24,-7.51
1777399169356,1806063,-0.99,-0.10,-0.18,3.05,1.59,-6.65
1777399169356,1806073,-0.98,-0.10,-0.18,7.45,2.69,-4.03
1777399169356,1806083,-0.95,-0.12,-0.19,10.38,2.26,-1.34
1777399169357,1806093,-0.94,-0.13,-0.21,10.86,0.49,-0.37
1777399169357,1806103,-0.92,-0.14,-0.23,9.64,-1.40,-0.92
1777399169357,1806113,-0.92,-0.15,-0.23,7.75,-2.69,-2.08
1777399169357,1806123,-0.93,-0.16,-0.23,5.00,-2.93,-4.21
1777399169357,1806133,-0.94,-0.15,-0.22,3.54,-3.17,-6.16
1777399169357,1806143,-0.94,-0.16,-0.22,2.62,-4.27,-7.08
1777399169357,1806153,-0.95,-0.16,-0.20,1.34,-5.07,-9.34
1777399169357,1806173,-0.96,-0.16,-0.20,-0.31,-3.48,-10.74
1777399169358,1806193,-0.91,-0.15,-0.19,2.87,-2.99,-8.06
1777399169358,1806213,-0.92,-0.16,-0.20,3.54,-4.76,-5.07
1777399169358,1806233,-0.92,-0.15,-0.20,2.87,-7.26,-5.68
1777399169358,1806243,-0.93,-0.16,-0.20,2.14,-8.24,-6.04
1777399169358,1806253,-0.94,-0.16,-0.18,0.92,-8.85,-6.47
1777399169358,1806263,-0.95,-0.15,-0.18,-0.67,-9.09,-6.84
1777399169358,1806273,-0.96,-0.15,-0.17,-2.32,-8.79,-7.45
1777399169358,1806283,-0.97,-0.16,-0.17,-3.17,-7.93,-8.06
1777399169359,1806293,-0.96,-0.15,-0.18,-1.89,-6.65,-7.75
1777399169359,1806303,-0.95,-0.16,-0.19,0.73,-5.68,-6.59
1777399169359,1806313,-0.93,-0.15,-0.20,2.87,-4.94,-5.25
1777399169359,1806323,-0.93,-0.15,-0.20,3.36,-4.88,-4.39
1777399169359,1806333,-0.92,-0.16,-0.21,3.60,-6.04,-4.58
1777399169359,1806343,-0.92,-0.15,-0.21,3.78,-7.32,-4.82
1777399169359,1806353,-0.93,-0.14,-0.20,3.36,-8.73,-5.19
1777399169359,1806363,-0.95,-0.14,-0.19,1.83,-9.46,-5.80
1777399169360,1806373,-0.97,-0.14,-0.18,0.31,-9.34,-6.41
1777399169360,1806383,-0.99,-0.15,-0.17,0.00,-8.54,-6.90
1777399169360,1806393,-0.99,-0.14,-0.17,0.85,-6.84,-6.77
1777399169360,1806403,-0.98,-0.14,-0.18,2.50,-4.46,-6.10
1777399169360,1806413,-0.97,-0.14,-0.19,4.52,-2.14,-4.76
1777399169360,1806423,-0.94,-0.15,-0.20,6.04,-1.10,-3.91
1777399169360,1806433,-0.92,-0.15,-0.20,6.59,-1.34,-3.60
1777399169360,1806443,-0.91,-0.17,-0.21,5.98,-3.11,-3.97
1777399169361,1806453,-0.90,-0.17,-0.20,4.82,-5.13,-5.07
1777399169361,1806463,-0.91,-0.17,-0.21,3.11,-6.65,-5.92
1777399169361,1806473,-0.92,-0.17,-0.19,2.38,-7.69,-5.80
1777399169361,1806483,-0.94,-0.17,-0.18,2.32,-8.30,-5.31
1777399169361,1806493,-0.96,-0.18,-0.16,1.46,-7.75,-4.82
1777399169361,1806503,-0.98,-0.17,-0.15,-0.31,-5.62,-5.00
1777399169361,1806523,-1.01,-0.15,-0.15,-0.61,1.95,-3.72
1777399169361,1806543,-0.96,-0.17,-0.21,3.23,3.66,0.18
1777399169362,1806563,-0.91,-0.17,-0.26,6.77,2.75,3.54
1777399169362,1806573,-0.90,-0.16,-0.27,7.08,1.22,4.76
1777399169362,1806583,-0.90,-0.15,-0.26,6.10,-0.67,4.64
1777399169362,1806593,-0.92,-0.14,-0.26,4.27,-2.87,3.54
1777399169362,1806603,-0.95,-0.13,-0.24,2.14,-4.70,1.77
1777399169362,1806613,-0.98,-0.13,-0.23,0.31,-5.13,-0.43
1777399169362,1806623,-0.99,-0.11,-0.22,0.73,-4.03,-1.95
1777399169362,1806633,-0.98,-0.10,-0.22,3.54,-2.38,-2.08
1777399169363,1806643,-0.98,-0.10,-0.21,6.47,-0.43,-1.71
1777399169363,1806653,-0.97,-0.11,-0.21,8.61,1.10,-1.28
1777399169363,1806663,-0.94,-0.11,-0.22,10.01,1.59,-1.16
1777399169363,1806673,-0.93,-0.11,-0.23,10.07,0.92,-2.26
1777399169363,1806683,-0.92,-0.12,-0.23,8.48,-0.92,-4.82
1777399169363,1806693,-0.92,-0.12,-0.23,6.71,-3.05,-7.45
1777399169363,1806703,-0.92,-0.14,-0.23,6.41,-5.19,-8.54
1777399169363,1806713,-0.92,-0.14,-0.22,6.53,-6.65,-9.22
1777399169364,1806723,-0.92,-0.15,-0.22,6.29,-7.32,-10.07
1777399169364,1806733,-0.92,-0.16,-0.21,5.80,-7.93,-10.44
1777399169364,1806743,-0.92,-0.16,-0.19,5.37,-8.30,-10.56
1777399169364,1806753,-0.93,-0.16,-0.18,4.33,-8.36,-10.25
1777399169364,1806763,-0.94,-0.17,-0.17,2.44,-8.36,-9.77
1777399169364,1806773,-0.94,-0.16,-0.17,1.28,-8.67,-10.19
1777399169364,1806783,-0.94,-0.16,-0.17,-0.12,-9.09,-11.72
1777399169364,1806793,-0.94,-0.17,-0.17,-1.10,-9.22,-12.88
1777399169365,1806803,-0.94,-0.18,-0.19,-0.31,-8.91,-11.84
1777399169365,1806813,-0.94,-0.18,-0.19,0.98,-8.54,-9.52
1777399169365,1806823,-0.93,-0.19,-0.19,1.59,-8.24,-7.32
1777399169365,1806833,-0.94,-0.18,-0.20,1.46,-7.93,-5.43
1777399169365,1806843,-0.96,-0.18,-0.19,1.10,-7.93,-2.62
1777399169365,1806863,-0.95,-0.16,-0.19,1.53,-7.51,-3.05
1777399169365,1806883,-0.95,-0.15,-0.17,0.37,-5.55,-3.30
1777399169365,1806903,-0.96,-0.14,-0.17,-0.18,-3.42,-4.52
1777399169366,1806923,-0.95,-0.13,-0.18,-0.18,-1.16,-4.76
1777399169366,1806933,-0.94,-0.14,-0.19,0.79,-1.34,-4.03
1777399169366,1806943,-0.93,-0.14,-0.21,2.14,-2.44,-2.69
1777399169366,1806953,-0.93,-0.14,-0.21,2.32,-3.91,-2.26
1777399169366,1806963,-0.93,-0.15,-0.22,1.65,-5.19,-2.32
1777399169366,1806973,-0.93,-0.15,-0.21,1.53,-6.10,-2.20
1777399169366,1806983,-0.94,-0.15,-0.21,1.83,-6.84,-1.95
1777399169366,1806993,-0.94,-0.14,-0.21,1.71,-7.32,-2.62
1777399169367,1807003,-0.95,-0.15,-0.20,0.73,-7.93,-3.60
1777399169367,1807013,-0.97,-0.15,-0.19,0.18,-7.81,-4.52
1777399169367,1807023,-0.97,-0.14,-0.19,0.37,-7.02,-5.19
1777399169367,1807033,-0.97,-0.15,-0.19,0.92,-5.68,-5.31
1777399169367,1807043,-0.96,-0.15,-0.20,2.50,-4.46,-4.27
1777399169367,1807053,-0.95,-0.15,-0.21,3.60,-3.85,-3.48
1777399169367,1807063,-0.94,-0.15,-0.21,3.97,-4.03,-3.17
1777399169367,1807073,-0.93,-0.15,-0.22,4.03,-4.88,-2.87
1777399169368,1807083,-0.93,-0.15,-0.22,4.15,-5.92,-3.11
1777399169368,1807093,-0.93,-0.14,-0.22,5.00,-6.65,-3.23
1777399169368,1807103,-0.93,-0.14,-0.22,5.86,-7.26,-2.81
1777399169368,1807113,-0.95,-0.15,-0.20,5.31,-7.69,-3.36
1777399169368,1807123,-0.96,-0.15,-0.19,4.70,-7.93,-4.21
1777399169368,1807133,-0.96,-0.14,-0.19,5.13,-7.75,-4.27
1777399169368,1807143,-0.96,-0.14,-0.18,5.07,-6.90,-4.52
1777399169368,1807153,-0.96,-0.14,-0.18,4.21,-5.74,-5.07
1777399169369,1807163,-0.96,-0.13,-0.18,4.39,-5.19,-5.49
1777399169369,1807173,-0.94,-0.13,-0.19,5.86,-5.37,-5.74
1777399169369,1807183,-0.93,-0.14,-0.20,7.08,-5.86,-5.55
1777399169369,1807193,-0.92,-0.15,-0.21,7.45,-6.59,-5.07
1777399169369,1807213,-0.93,-0.16,-0.21,4.09,-11.05,-7.75
1777399169369,1807233,-0.96,-0.17,-0.19,2.62,-12.27,-7.87
1777399169369,1807253,-0.98,-0.17,-0.18,2.14,-10.50,-6.71
1777399169369,1807263,-0.98,-0.17,-0.17,2.44,-8.85,-6.59
1777399169370,1807273,-0.97,-0.17,-0.17,2.69,-7.20,-6.41
1777399169370,1807283,-0.96,-0.17,-0.17,2.87,-5.74,-5.92
1777399169370,1807293,-0.94,-0.16,-0.17,3.30,-5.49,-5.49
1777399169370,1807303,-0.94,-0.16,-0.17,2.44,-5.13,-5.55
1777399169370,1807313,-0.93,-0.16,-0.17,2.08,-5.25,-6.04
1777399169370,1807323,-0.92,-0.16,-0.17,2.38,-5.86,-6.04
1777399169370,1807333,-0.92,-0.16,-0.17,2.75,-6.65,-6.35
1777399169370,1807343,-0.93,-0.15,-0.17,3.05,-8.00,-6.96
1777399169371,1807353,-0.94,-0.16,-0.16,3.42,-9.40,-6.90
1777399169371,1807363,-0.96,-0.16,-0.15,3.30,-10.31,-6.96
1777399169371,1807373,-0.97,-0.16,-0.15,2.32,-9.52,-7.26
1777399169371,1807383,-0.99,-0.16,-0.15,1.34,-7.02,-7.26
1777399169371,1807393,-1.00,-0.17,-0.15,1.16,-3.97,-7.32
1777399169371,1807403,-0.98,-0.17,-0.16,1.40,-1.22,-7.63
1777399169371,1807413,-0.96,-0.17,-0.18,1.95,0.31,-7.45
1777399169371,1807423,-0.94,-0.17,-0.19,2.50,0.61,-6.59
1777399169372,1807433,-0.93,-0.18,-0.21,2.26,0.37,-6.65
1777399169372,1807443,-0.93,-0.18,-0.21,1.77,0.67,-7.57
1777399169372,1807453,-0.93,-0.17,-0.20,1.22,1.28,-9.40
1777399169372,1807463,-0.94,-0.17,-0.19,-0.79,1.40,-12.15
1777399169372,1807473,-0.92,-0.12,-0.19,-3.11,0.85,-14.47
1777399169372,1807483,-0.90,-0.09,-0.23,-1.40,0.73,-10.13
1777399169372,1807493,-0.95,-0.09,-0.26,5.43,3.66,-1.53
1777399169372,1807503,-0.98,-0.13,-0.19,14.04,8.48,3.54
1777399169373,1807513,-0.96,-0.17,-0.19,18.55,9.83,4.46
1777399169373,1807523,-0.94,-0.16,-0.19,23.99,11.78,0.06
1777399169373,1807533,-0.96,-0.15,-0.20,26.92,14.47,-6.41
1777399169373,1807553,-1.05,-0.22,-0.18,11.72,17.33,-12.02
1777399169373,1807573,-1.00,-0.29,-0.32,-20.81,4.88,-35.58
1777399169373,1807593,-0.93,-0.25,-0.35,-28.50,1.53,-54.99
1777399169373,1807613,-0.94,-0.28,-0.35,-20.69,6.96,-51.39
1777399169373,1807623,-0.94,-0.30,-0.38,-17.70,6.65,-42.48
1777399169374,1807633,-0.91,-0.37,-0.47,-15.32,3.11,-31.98
1777399169374,1807643,-0.83,-0.41,-0.48,-20.14,-3.23,-28.32
1777399169374,1807653,-0.75,-0.28,-0.45,-25.27,-9.77,-34.00
1777399169374,1807663,-0.84,-0.38,-0.34,-22.89,-6.77,-36.19
1777399169374,1807673,-0.93,-0.44,-0.09,-19.47,1.16,-39.67
1777399169383,1807683,-1.18,-0.30,0.07,-24.66,-0.61,-43.09
1777399169393,1807693,-1.44,-0.08,0.13,-24.96,-0.12,-45.29
1777399169403,1807703,-1.43,-0.02,-0.03,-29.91,-1.34,-44.80
1777399169413,1807713,-1.34,-0.09,-0.22,-23.19,0.18,-28.87
1777399169423,1807723,-1.25,-0.06,-0.32,10.38,5.07,-1.34
1777399169433,1807733,-1.11,-0.05,-0.37,38.51,9.77,28.50
1777399169443,1807743,-0.96,-0.15,-0.35,43.21,12.39,43.88
1777399169453,1807753,-0.84,-0.39,-0.37,34.61,9.22,38.88
1777399169463,1807763,-0.86,-0.45,-0.26,22.16,-0.18,7.20
1777399169473,1807773,-1.01,-0.32,-0.16,22.34,-14.83,-39.79
1777399169483,1807783,-1.13,-0.21,-0.17,29.05,-25.09,-80.93
1777399169493,1807793,-1.07,-0.22,-0.18,24.35,-24.72,-109.07
1777399169503,1807803,-0.95,-0.21,-0.17,10.74,-14.89,-122.92
1777399169513,1807813,-0.85,-0.20,-0.22,-3.72,1.10,-122.44
1777399169523,1807823,-0.76,-0.17,-0.26,-18.98,17.82,-115.78
1777399169533,1807833,-0.75,-0.09,-0.25,-24.66,26.25,-107.73
1777399169543,1807843,-0.35,0.62,-0.57,-39.92,20.57,-101.50
1777399169553,1807853,-0.86,-1.15,0.04,-160.10,142.21,-78.00
1777399169563,1807863,-1.16,-0.43,-0.45,-115.72,218.14,-75.87
1777399169573,1807873,-0.87,-1.54,0.41,-95.95,205.26,-60.36
1777399169583,1807883,-1.23,-0.50,0.05,8.00,120.06,-67.63
1777399169603,1807903,-0.49,-0.07,0.26,-15.14,-214.60,-52.06
1777399169623,1807923,-0.48,-0.41,-0.53,43.82,-236.39,-47.36
1777399169643,1807943,-0.73,-0.71,-0.09,38.45,-125.79,-47.18
1777399169653,1807953,-0.70,-0.52,-0.30,57.86,-82.52,-54.26
1777399169663,1807963,-0.85,-0.56,-0.24,66.04,-43.46,-56.15
1777399169673,1807973,-0.95,-0.60,-0.10,87.46,-34.06,-69.70
1777399169683,1807983,-0.84,-0.45,-0.03,119.20,-49.07,-88.13
1777399169693,1807993,-0.58,-0.11,-0.26,148.01,-59.45,-95.15
1777399169707,1808003,-1.18,0.11,-0.26,168.82,-59.57,-59.88
1777399169713,1808013,-1.44,0.15,-0.98,56.58,-40.89,0.55
1777399169723,1808023,-1.02,-0.76,0.53,-116.27,2.38,40.95
1777399169734,1808033,-1.05,-0.47,0.10,-51.57,-35.46,56.27
1777399169743,1808043,-1.06,-0.57,0.09,-18.86,-78.55,94.54
1777399169753,1808053,-1.16,-0.72,0.05,-30.09,-100.40,104.86
1777399169763,1808063,-1.07,-0.67,-0.31,-54.75,-103.21,91.98
1777399169773,1808073,-0.97,-0.49,-0.64,-64.58,-73.06,82.21
1777399169783,1808083,-1.03,-0.58,-0.74,-71.96,-22.71,78.86
1777399169793,1808093,-1.09,-0.79,-0.25,-90.76,30.52,62.01
1777399169803,1808103,-0.93,-0.99,0.08,-113.04,54.38,28.32
1777399169813,1808113,-0.62,-0.13,0.16,-159.91,53.77,14.04
1777399169823,1808123,-0.52,-2.54,-0.61,-237.61,78.00,49.26
1777399169833,1808133,-1.15,-4.00,-0.71,-256.77,161.13,27.47
1777399169843,1808143,-1.05,-4.00,-1.20,-217.16,217.22,12.02
1777399169853,1808153,-0.85,-4.00,-1.38,-201.05,276.49,1.40
1777399169863,1808163,-0.67,-4.00,-1.26,-200.01,307.92,14.77
1777399169873,1808173,-0.27,-4.00,-0.90,-163.33,272.16,24.84
1777399169883,1808183,0.32,-4.00,-0.41,-122.01,181.34,32.78
1777399169893,1808193,0.99,-4.00,-0.14,-117.86,80.26,48.03
1777399169903,1808203,1.91,-3.83,-0.30,-145.14,17.64,103.58
1777399169913,1808213,2.71,-2.55,-0.63,-184.14,28.02,214.90
1777399169923,1808223,3.19,-0.79,-0.63,-225.16,83.50,480.77
1777399169943,1808243,2.15,2.86,0.87,-202.33,-115.84,495.18
1777399169963,1808263,2.67,4.00,0.39,46.51,-311.10,362.73
1777399169983,1808283,-0.37,4.00,-0.63,443.54,-35.10,512.02
1777399170003,1808303,-4.00,2.76,3.14,84.05,319.58,397.09
1777399170013,1808313,-4.00,0.47,3.48,-4.09,170.59,230.35
1777399170023,1808323,-3.07,1.29,1.70,26.67,-50.54,-12.02
1777399170033,1808333,-1.27,2.25,0.95,32.47,-108.58,-195.37
1777399170043,1808343,0.05,2.74,0.35,13.85,-76.23,-275.15
1777399170053,1808353,0.65,2.78,-0.06,-7.51,-26.55,-285.28
1777399170063,1808363,0.84,2.60,-0.13,6.29,13.67,-275.51
1777399170073,1808373,1.01,2.48,-0.05,34.06,22.83,-276.18
1777399170083,1808383,1.15,2.40,-0.05,49.74,14.65,-290.10
1777399170093,1808393,1.24,2.23,-0.22,47.24,5.98,-305.54
1777399170103,1808403,1.16,2.05,-0.26,25.02,7.57,-314.27
1777399170113,1808413,1.00,1.84,-0.38,2.99,17.70,-305.85
1777399170123,1808423,0.78,1.50,-0.59,-9.58,26.49,-279.79
1777399170133,1808433,0.44,0.99,-0.60,-13.85,29.60,-258.48
1777399170143,1808443,0.22,0.65,-0.66,-3.60,17.33,-248.54
1777399170153,1808453,0.21,0.32,-0.76,18.62,-4.15,-239.20
1777399170163,1808463,0.12,0.12,-0.61,41.26,-29.66,-230.90
1777399170173,1808473,0.00,-0.03,-0.80,61.46,-56.82,-211.85
1777399170183,1808483,0.10,-0.57,-0.64,62.87,-65.55,-187.87
1777399170193,1808493,-0.15,-0.93,-0.61,51.82,-73.91,-194.58
1777399170203,1808503,-0.41,-1.35,-0.50,33.75,-79.28,-197.08
1777399170213,1808513,-0.55,-1.76,-0.50,25.45,-86.73,-191.35
1777399170223,1808523,-0.66,-1.98,-0.64,24.66,-97.17,-191.77
1777399170233,1808533,-0.63,-2.07,-0.78,22.40,-99.49,-204.65
1777399170243,1808543,-0.54,-1.94,-0.89,17.76,-90.33,-226.32
1777399170253,1808553,-0.30,-1.66,-1.16,9.58,-68.66,-237.79
1777399170263,1808563,-0.12,-1.69,-1.34,11.11,-34.73,-220.95
1777399170273,1808573,-0.16,-1.75,-1.34,38.88,19.47,-168.03
1777399170293,1808593,-0.35,-1.67,-0.94,140.62,19.78,-125.00
1777399170313,1808613,-0.25,-1.28,-0.66,72.75,-7.45,-100.10
