host_time_ms,arduino_time_ms,ax,ay,az,gx,gy,gz
1777399154854,1788403,-0.65,0.56,-0.58,-6.04,3.54,-7.39
1777399154855,1788413,-0.65,0.56,-0.56,-8.67,4.39,-6.16
1777399154855,1788423,-0.65,0.55,-0.53,-9.77,3.78,-4.88
1777399154855,1788433,-0.63,0.55,-0.53,-9.09,2.26,-4.46
1777399154855,1788443,-0.61,0.56,-0.54,-7.45,0.92,-4.39
1777399154856,1788453,-0.59,0.57,-0.53,-6.04,-0.31,-4.76
1777399154856,1788463,-0.58,0.56,-0.53,-5.31,-2.93,-5.92
1777399154856,1788473,-0.58,0.56,-0.52,-3.97,-6.59,-7.45
1777399154856,1788483,-0.58,0.57,-0.55,-2.93,-10.13,-8.79
1777399154857,1788493,-0.57,0.58,-0.56,-3.78,-10.99,-9.34
1777399154857,1788503,-0.57,0.58,-0.55,-5.92,-9.77,-9.28
1777399154857,1788513,-0.58,0.56,-0.53,-7.39,-7.57,-9.64
1777399154858,1788523,-0.61,0.56,-0.52,-7.26,-5.00,-10.44
1777399154858,1788533,-0.63,0.56,-0.51,-6.16,-2.81,-9.70
1777399154859,1788543,-0.64,0.56,-0.51,-5.31,-2.44,-8.30
1777399154859,1788563,-0.62,0.57,-0.51,-4.15,-6.16,-6.16
1777399154859,1788583,-0.58,0.58,-0.52,-5.92,-4.94,-7.39
1777399154860,1788603,-0.59,0.57,-0.49,-5.31,-1.59,-10.68
1777399154860,1788623,-0.61,0.57,-0.48,-2.56,-0.98,-12.08
1777399154860,1788633,-0.62,0.57,-0.48,-1.53,-2.56,-12.15
1777399154860,1788643,-0.63,0.57,-0.48,-0.31,-4.82,-11.60
1777399154861,1788653,-0.63,0.56,-0.50,0.06,-5.92,-10.80
1777399154861,1788663,-0.64,0.56,-0.51,0.06,-5.31,-10.07
1777399154861,1788673,-0.65,0.57,-0.51,-0.12,-3.42,-9.40
1777399154861,1788683,-0.66,0.56,-0.52,-0.67,-1.40,-9.22
1777399154862,1788693,-0.66,0.55,-0.51,-0.73,0.06,-9.22
1777399154862,1788703,-0.67,0.55,-0.51,0.06,0.37,-8.73
1777399154862,1788713,-0.67,0.55,-0.52,0.67,-0.24,-7.51
1777399154862,1788723,-0.66,0.55,-0.52,0.67,-0.92,-6.77
1777399154863,1788733,-0.66,0.55,-0.52,0.61,-1.65,-6.10
1777399154863,1788743,-0.64,0.55,-0.51,0.79,-2.93,-5.49
1777399154863,1788753,-0.64,0.55,-0.52,1.53,-4.46,-5.86
1777399154863,1788763,-0.63,0.56,-0.53,2.44,-5.49,-5.80
1777399154864,1788773,-0.63,0.56,-0.53,2.93,-5.92,-4.76
1777399154864,1788783,-0.63,0.56,-0.53,2.38,-5.55,-4.58
1777399154864,1788793,-0.62,0.55,-0.53,2.20,-5.07,-4.46
1777399154864,1788803,-0.61,0.55,-0.53,2.69,-5.07,-4.52
1777399154864,1788813,-0.61,0.55,-0.53,3.23,-5.19,-5.37
1777399154865,1788823,-0.61,0.55,-0.54,4.03,-5.62,-5.55
1777399154865,1788833,-0.61,0.56,-0.54,4.52,-5.98,-5.37
1777399154865,1788843,-0.59,0.55,-0.55,4.15,-6.47,-6.10
1777399154865,1788853,-0.59,0.56,-0.56,3.17,-6.35,-7.45
1777399154866,1788863,-0.59,0.57,-0.55,1.71,-5.19,-8.12
1777399154866,1788873,-0.60,0.55,-0.54,0.43,-3.91,-8.24
1777399154866,1788883,-0.61,0.54,-0.52,0.24,-3.17,-9.22
1777399154866,1788893,-0.62,0.54,-0.53,1.10,-3.17,-10.86
1777399154866,1788913,-0.65,0.54,-0.54,0.06,-2.44,-9.28
1777399154867,1788933,-0.67,0.53,-0.51,0.55,-3.85,-7.87
1777399154867,1788953,-0.64,0.52,-0.52,1.83,-6.16,-6.10
1777399154867,1788973,-0.65,0.54,-0.53,3.23,-7.20,-7.51
1777399154867,1788983,-0.64,0.54,-0.53,3.11,-7.69,-7.02
1777399154868,1788993,-0.64,0.54,-0.54,2.20,-8.42,-6.71
1777399154868,1789003,-0.63,0.54,-0.54,1.34,-8.18,-6.90
1777399154868,1789013,-0.63,0.54,-0.54,0.85,-6.90,-6.65
1777399154868,1789023,-0.63,0.54,-0.54,0.37,-5.37,-6.71
1777399154868,1789033,-0.64,0.54,-0.53,-0.06,-4.03,-6.96
1777399154869,1789043,-0.65,0.54,-0.52,0.12,-3.78,-6.53
1777399154869,1789053,-0.65,0.54,-0.53,0.24,-4.70,-6.71
1777399154869,1789063,-0.65,0.54,-0.53,0.18,-5.31,-7.14
1777399154869,1789073,-0.65,0.54,-0.53,0.43,-5.43,-6.53
1777399154869,1789083,-0.65,0.54,-0.53,0.67,-5.37,-5.98
1777399154870,1789093,-0.65,0.53,-0.52,0.67,-5.19,-5.92
1777399154870,1789103,-0.65,0.54,-0.53,0.98,-5.68,-5.92
1777399154870,1789113,-0.64,0.55,-0.53,1.28,-6.35,-5.37
1777399154870,1789123,-0.63,0.55,-0.54,1.46,-6.53,-5.00
1777399154870,1789133,-0.63,0.55,-0.54,1.46,-5.98,-4.94
1777399154871,1789143,-0.63,0.55,-0.55,1.16,-4.52,-5.49
1777399154871,1789153,-0.63,0.55,-0.55,0.67,-2.56,-5.92
1777399154871,1789163,-0.63,0.54,-0.54,-0.18,-0.98,-6.04
1777399154871,1789173,-0.64,0.54,-0.52,-0.73,-0.61,-5.80
1777399154871,1789183,-0.64,0.54,-0.51,-0.43,-1.95,-5.55
1777399154871,1789193,-0.63,0.54,-0.51,0.18,-4.58,-5.13
1777399154872,1789203,-0.62,0.54,-0.51,0.73,-6.84,-5.07
1777399154872,1789213,-0.62,0.54,-0.52,1.16,-7.63,-6.23
1777399154872,1789223,-0.63,0.55,-0.53,1.34,-6.53,-7.39
1777399154872,1789233,-0.63,0.55,-0.53,1.10,-4.64,-7.39
1777399154872,1789253,-0.64,0.53,-0.52,0.12,-1.95,-7.39
1777399154873,1789273,-0.64,0.54,-0.51,0.12,-3.66,-6.04
1777399154873,1789293,-0.64,0.55,-0.51,0.24,-4.27,-7.08
1777399154873,1789313,-0.64,0.55,-0.51,1.04,-3.66,-7.63
1777399154873,1789323,-0.64,0.54,-0.51,1.53,-4.21,-7.26
1777399154873,1789333,-0.64,0.54,-0.51,1.95,-5.07,-7.20
1777399154874,1789343,-0.64,0.54,-0.52,2.38,-5.80,-7.63
1777399154874,1789353,-0.65,0.54,-0.53,2.14,-6.16,-7.69
1777399154874,1789363,-0.65,0.54,-0.52,1.40,-6.04,-7.45
1777399154874,1789373,-0.64,0.54,-0.52,0.85,-5.68,-6.90
1777399154874,1789383,-0.64,0.54,-0.52,0.79,-5.55,-6.47
1777399154875,1789393,-0.63,0.55,-0.52,0.49,-5.31,-6.41
1777399154875,1789403,-0.63,0.55,-0.51,0.06,-5.37,-6.41
1777399154875,1789413,-0.63,0.54,-0.51,-0.43,-5.62,-6.84
1777399154875,1789423,-0.63,0.54,-0.50,-0.31,-5.86,-7.20
1777399154875,1789433,-0.63,0.54,-0.50,0.31,-5.62,-7.26
1777399154876,1789443,-0.63,0.55,-0.51,0.79,-5.19,-7.26
1777399154876,1789453,-0.62,0.55,-0.51,0.98,-4.58,-7.20
1777399154876,1789463,-0.63,0.55,-0.51,0.67,-4.09,-7.63
1777399154876,1789473,-0.63,0.54,-0.51,0.49,-3.60,-8.24
1777399154876,1789483,-0.64,0.55,-0.50,0.55,-3.48,-8.73
1777399154876,1789493,-0.65,0.55,-0.50,0.73,-3.97,-8.61
1777399154877,1789503,-0.65,0.55,-0.50,1.16,-4.70,-8.18
1777399154877,1789513,-0.65,0.55,-0.50,1.71,-5.74,-7.87
1777399154877,1789523,-0.65,0.55,-0.50,2.26,-6.77,-8.06
1777399154877,1789533,-0.65,0.55,-0.51,2.20,-7.45,-8.12
1777399154877,1789543,-0.65,0.55,-0.51,1.83,-7.20,-8.18
1777399154878,1789553,-0.65,0.55,-0.51,1.65,-6.23,-8.24
1777399154878,1789563,-0.65,0.55,-0.51,1.77,-5.13,-8.24
1777399154878,1789573,-0.66,0.54,-0.50,2.08,-4.39,-8.24
1777399154878,1789583,-0.67,0.54,-0.51,2.56,-3.78,-8.42
1777399154878,1789603,-0.68,0.54,-0.52,2.56,-3.17,-7.14
1777399154879,1789623,-0.68,0.53,-0.52,2.44,-3.78,-5.19
1777399154879,1789643,-0.65,0.54,-0.52,2.50,-4.76,-4.09
1777399154879,1789663,-0.65,0.54,-0.52,2.75,-5.86,-4.52
1777399154879,1789673,-0.65,0.53,-0.53,2.75,-6.23,-4.64
1777399154879,1789683,-0.65,0.53,-0.53,2.20,-6.16,-4.94
1777399154879,1789693,-0.65,0.53,-0.52,1.77,-5.62,-4.76
1777399154880,1789703,-0.65,0.53,-0.52,1.22,-5.13,-4.46
1777399154880,1789713,-0.65,0.53,-0.51,0.92,-5.13,-4.46
1777399154880,1789723,-0.64,0.53,-0.51,0.73,-5.37,-4.58
1777399154880,1789733,-0.64,0.53,-0.50,0.79,-5.62,-4.52
1777399154880,1789743,-0.64,0.53,-0.50,1.34,-5.86,-4.94
1777399154880,1789753,-0.64,0.53,-0.50,1.89,-5.55,-5.31
1777399154881,1789763,-0.64,0.53,-0.50,2.32,-5.13,-5.49
1777399154881,1789773,-0.65,0.53,-0.50,2.38,-4.94,-5.55
1777399154881,1789783,-0.65,0.53,-0.50,2.38,-5.00,-5.55
1777399154881,1789793,-0.65,0.53,-0.50,2.38,-5.07,-5.80
1777399154881,1789803,-0.64,0.53,-0.51,2.50,-5.07,-5.92
1777399154881,1789813,-0.64,0.53,-0.52,2.62,-4.76,-6.04
1777399154882,1789823,-0.64,0.53,-0.52,2.62,-4.27,-6.59
1777399154882,1789833,-0.64,0.53,-0.52,2.75,-4.09,-7.08
1777399154882,1789843,-0.65,0.53,-0.52,2.62,-4.52,-7.45
1777399154882,1789853,-0.65,0.53,-0.53,2.44,-5.07,-7.20
1777399154882,1789863,-0.65,0.53,-0.53,1.95,-5.55,-6.65
1777399154882,1789873,-0.65,0.53,-0.52,1.10,-5.43,-6.59
1777399154883,1789883,-0.65,0.53,-0.51,0.61,-5.00,-6.71
1777399154883,1789893,-0.65,0.53,-0.50,0.79,-4.88,-7.02
1777399154883,1789903,-0.66,0.53,-0.50,1.59,-5.25,-7.45
1777399154883,1789913,-0.66,0.53,-0.51,2.20,-5.74,-7.81
1777399154883,1789923,-0.66,0.54,-0.51,2.32,-5.98,-8.00
1777399154883,1789943,-0.65,0.55,-0.50,1.95,-4.70,-7.08
1777399154884,1789963,-0.65,0.55,-0.51,2.81,-1.95,-8.73
1777399154884,1789983,-0.67,0.53,-0.52,4.46,-0.73,-8.97
1777399154884,1790003,-0.67,0.52,-0.54,3.72,-1.16,-7.02
1777399154884,1790013,-0.66,0.51,-0.54,2.81,-1.28,-6.04
1777399154884,1790023,-0.66,0.51,-0.53,2.69,-1.10,-5.98
1777399154884,1790033,-0.66,0.51,-0.53,2.32,-1.59,-6.16
1777399154885,1790043,-0.66,0.51,-0.53,2.20,-2.38,-6.16
1777399154885,1790053,-0.65,0.51,-0.53,2.56,-3.11,-6.23
1777399154885,1790063,-0.65,0.51,-0.53,2.62,-3.42,-6.53
1777399154885,1790073,-0.64,0.51,-0.53,2.08,-3.72,-6.77
1777399154885,1790083,-0.63,0.52,-0.53,1.46,-4.09,-6.65
1777399154885,1790093,-0.63,0.53,-0.53,0.43,-4.58,-6.47
1777399154886,1790103,-0.63,0.53,-0.52,-0.98,-4.52,-6.77
1777399154886,1790113,-0.63,0.54,-0.51,-1.89,-4.39,-7.14
1777399154886,1790123,-0.63,0.54,-0.50,-2.01,-4.33,-7.02
1777399154886,1790133,-0.63,0.54,-0.49,-1.53,-4.39,-7.14
1777399154886,1790143,-0.64,0.54,-0.49,-0.61,-4.76,-7.57
1777399154886,1790153,-0.64,0.54,-0.49,0.18,-5.37,-7.87
1777399154887,1790163,-0.65,0.53,-0.50,0.43,-5.74,-8.48
1777399154887,1790173,-0.66,0.53,-0.50,0.24,-5.92,-9.03
1777399154887,1790183,-0.67,0.52,-0.50,-0.06,-6.04,-8.79
1777399154887,1790193,-0.68,0.52,-0.50,-0.43,-6.29,-8.54
1777399154887,1790203,-0.68,0.52,-0.50,-0.73,-6.53,-8.00
1777399154887,1790213,-0.68,0.51,-0.50,-1.04,-6.96,-7.57
1777399154887,1790223,-0.68,0.51,-0.49,-0.79,-7.26,-7.14
1777399154888,1790233,-0.68,0.50,-0.49,-0.37,-7.51,-7.14
1777399154888,1790243,-0.68,0.50,-0.49,0.18,-7.51,-7.69
1777399154888,1790253,-0.69,0.50,-0.49,0.92,-7.63,-8.00
1777399154888,1790263,-0.69,0.51,-0.50,1.65,-7.93,-7.39
1777399154888,1790273,-0.68,0.51,-0.50,1.89,-8.24,-5.68
1777399154888,1790293,-0.67,0.51,-0.49,2.44,-6.96,-6.10
1777399154889,1790313,-0.66,0.52,-0.49,4.58,-6.29,-7.02
1777399154889,1790333,-0.66,0.52,-0.50,6.23,-6.04,-7.51
1777399154889,1790353,-0.66,0.52,-0.51,7.08,-5.74,-7.08
1777399154889,1790363,-0.66,0.52,-0.52,7.20,-5.19,-6.59
1777399154889,1790373,-0.66,0.52,-0.53,6.96,-4.33,-6.53
1777399154889,1790383,-0.66,0.52,-0.54,6.41,-3.30,-6.84
1777399154889,1790393,-0.67,0.51,-0.54,5.68,-2.26,-7.51
1777399154890,1790403,-0.67,0.50,-0.54,5.13,-1.71,-8.12
1777399154890,1790413,-0.68,0.50,-0.54,4.82,-1.65,-8.73
1777399154890,1790423,-0.69,0.50,-0.54,4.58,-2.26,-8.97
1777399154890,1790433,-0.69,0.50,-0.54,4.33,-3.42,-8.54
1777399154890,1790443,-0.69,0.50,-0.55,3.85,-4.64,-7.51
1777399154890,1790453,-0.68,0.50,-0.55,2.56,-5.25,-6.96
1777399154891,1790463,-0.67,0.50,-0.55,1.16,-4.94,-6.90
1777399154891,1790473,-0.67,0.50,-0.54,0.06,-4.52,-6.90
1777399154891,1790483,-0.68,0.50,-0.54,-0.55,-4.39,-7.02
1777399154891,1790493,-0.67,0.50,-0.53,-0.85,-4.39,-7.02
1777399154891,1790503,-0.67,0.50,-0.53,-1.16,-4.76,-7.26
1777399154891,1790513,-0.67,0.50,-0.52,-1.34,-5.37,-7.20
1777399154891,1790523,-0.67,0.50,-0.53,-1.10,-6.16,-6.84
1777399154892,1790533,-0.66,0.51,-0.53,-1.16,-6.41,-7.26
1777399154892,1790543,-0.66,0.51,-0.53,-1.65,-5.80,-8.06
1777399154892,1790553,-0.66,0.51,-0.52,-1.89,-4.94,-8.06
1777399154892,1790563,-0.66,0.51,-0.52,-2.01,-4.15,-7.81
1777399154892,1790573,-0.66,0.51,-0.51,-1.71,-3.54,-7.45
1777399154892,1790583,-0.66,0.51,-0.51,-1.28,-3.23,-7.20
1777399154892,1790593,-0.66,0.51,-0.51,-0.98,-3.17,-7.57
1777399154893,1790603,-0.66,0.52,-0.51,-1.22,-3.48,-7.75
1777399154893,1790613,-0.66,0.52,-0.50,-1.34,-4.09,-7.32
1777399154893,1790633,-0.65,0.52,-0.50,-1.04,-4.52,-8.48
1777399154893,1790653,-0.66,0.52,-0.48,-0.55,-4.21,-9.95
1777399154893,1790673,-0.67,0.52,-0.47,0.43,-4.52,-9.52
1777399154893,1790693,-0.68,0.53,-0.46,1.16,-4.21,-9.28
1777399154894,1790703,-0.68,0.52,-0.46,1.89,-4.52,-8.97
1777399154894,1790713,-0.68,0.53,-0.47,2.75,-4.70,-8.85
1777399154894,1790723,-0.69,0.53,-0.47,3.42,-5.00,-8.91
1777399154894,1790733,-0.69,0.52,-0.47,3.85,-5.00,-8.91
1777399154894,1790743,-0.70,0.52,-0.47,4.03,-5.00,-8.91
1777399154894,1790753,-0.70,0.52,-0.47,4.46,-5.25,-8.61
1777399154894,1790763,-0.71,0.52,-0.47,4.94,-5.49,-8.12
1777399154895,1790773,-0.71,0.52,-0.48,5.25,-5.74,-7.75
1777399154895,1790783,-0.71,0.52,-0.48,5.49,-5.98,-6.59
1777399154895,1790793,-0.71,0.51,-0.48,5.55,-6.47,-5.49
1777399154895,1790803,-0.71,0.51,-0.48,5.86,-7.26,-4.94
1777399154895,1790813,-0.70,0.52,-0.49,6.35,-8.00,-4.70
1777399154895,1790823,-0.70,0.51,-0.49,6.59,-8.12,-4.64
1777399154896,1790833,-0.70,0.51,-0.49,6.77,-7.81,-4.94
1777399154896,1790843,-0.70,0.51,-0.49,7.08,-7.45,-5.49
1777399154896,1790853,-0.71,0.50,-0.50,7.63,-7.20,-5.80
1777399154896,1790863,-0.71,0.50,-0.51,8.06,-7.02,-5.62
1777399154896,1790873,-0.71,0.50,-0.52,8.36,-6.59,-5.31
1777399154896,1790883,-0.71,0.50,-0.53,8.24,-5.98,-4.64
1777399154896,1790893,-0.71,0.50,-0.53,7.81,-5.19,-3.91
1777399154896,1790903,-0.71,0.49,-0.53,7.75,-4.70,-3.78
1777399154897,1790913,-0.71,0.49,-0.55,7.57,-4.70,-3.91
1777399154897,1790923,-0.71,0.48,-0.55,7.14,-4.39,-3.54
1777399154897,1790933,-0.71,0.48,-0.56,6.41,-4.09,-3.11
1777399154897,1790943,-0.70,0.49,-0.56,5.25,-3.66,-2.75
1777399154897,1790953,-0.69,0.46,-0.56,3.78,-3.11,-2.75
1777399154897,1790963,-0.69,0.47,-0.56,3.54,-2.50,-3.42
1777399154897,1790983,-0.69,0.47,-0.56,2.01,-1.59,-3.97
1777399154898,1791003,-0.68,0.47,-0.55,0.37,-2.08,-4.58
1777399154898,1791023,-0.66,0.49,-0.54,0.73,-2.69,-4.21
1777399154898,1791043,-0.65,0.48,-0.53,-0.12,-3.42,-4.76
1777399154898,1791053,-0.65,0.48,-0.53,-0.31,-2.87,-5.62
1777399154898,1791063,-0.65,0.49,-0.53,-0.37,-1.89,-6.47
1777399154898,1791073,-0.66,0.48,-0.52,-0.43,-0.92,-6.90
1777399154898,1791083,-0.66,0.48,-0.52,-0.49,-0.18,-7.20
1777399154899,1791093,-0.67,0.48,-0.52,-0.55,-0.12,-7.20
1777399154899,1791103,-0.66,0.48,-0.52,-0.31,-0.85,-6.77
1777399154899,1791113,-0.66,0.48,-0.52,-0.18,-1.65,-6.90
1777399154899,1791123,-0.65,0.48,-0.52,-0.61,-2.26,-7.08
1777399154899,1791133,-0.65,0.48,-0.52,-1.10,-2.44,-7.14
1777399154899,1791143,-0.65,0.48,-0.51,-1.40,-2.62,-7.32
1777399154899,1791153,-0.66,0.48,-0.51,-1.28,-2.81,-7.63
1777399154900,1791163,-0.66,0.47,-0.51,-0.67,-3.05,-7.87
1777399154900,1791173,-0.66,0.47,-0.51,0.06,-3.30,-7.81
1777399154900,1791183,-0.66,0.47,-0.52,0.00,-3.42,-7.45
1777399154900,1791193,-0.66,0.49,-0.53,-0.92,-3.30,-7.02
1777399154900,1791203,-0.65,0.49,-0.51,-2.75,-3.30,-6.59
1777399154900,1791213,-0.65,0.50,-0.49,-4.03,-3.97,-6.47
1777399154900,1791223,-0.64,0.50,-0.47,-3.91,-5.43,-6.96
1777399154901,1791233,-0.64,0.51,-0.46,-2.69,-7.02,-7.69
1777399154901,1791243,-0.64,0.52,-0.46,-1.22,-8.30,-8.48
1777399154901,1791253,-0.64,0.53,-0.45,-0.31,-8.97,-8.61
1777399154901,1791263,-0.63,0.52,-0.44,0.18,-9.46,-8.54
1777399154901,1791273,-0.64,0.54,-0.43,0.43,-9.89,-9.09
1777399154901,1791283,-0.65,0.54,-0.42,0.85,-9.83,-9.34
1777399154901,1791293,-0.66,0.54,-0.40,1.40,-9.46,-9.09
1777399154902,1791303,-0.67,0.55,-0.39,2.93,-8.67,-9.16
1777399154902,1791313,-0.68,0.55,-0.39,4.64,-8.42,-10.56
1777399154902,1791333,-0.70,0.55,-0.39,10.74,-13.12,-10.86
1777399154902,1791353,-0.74,0.55,-0.44,12.76,-14.65,-8.97
1777399154902,1791373,-0.76,0.53,-0.47,12.94,-11.72,-7.26
1777399154902,1791383,-0.78,0.52,-0.48,12.57,-9.09,-6.96
1777399154902,1791393,-0.80,0.50,-0.49,12.08,-6.71,-6.59
1777399154903,1791403,-0.82,0.48,-0.51,12.21,-5.00,-5.74
1777399154903,1791413,-0.83,0.47,-0.52,12.76,-3.97,-4.39
1777399154903,1791423,-0.84,0.46,-0.54,12.57,-3.72,-3.05
1777399154903,1791433,-0.84,0.45,-0.55,11.78,-3.85,-1.16
1777399154903,1791443,-0.84,0.45,-0.56,10.99,-4.70,1.16
1777399154903,1791453,-0.82,0.45,-0.57,10.01,-6.16,3.36
1777399154903,1791463,-0.79,0.45,-0.58,9.22,-7.75,5.07
1777399154903,1791473,-0.76,0.45,-0.60,8.36,-8.61,6.10
1777399154904,1791483,-0.74,0.46,-0.61,6.71,-8.06,6.71
1777399154904,1791493,-0.71,0.46,-0.61,4.94,-6.65,6.71
1777399154904,1791503,-0.70,0.46,-0.61,3.60,-4.76,6.04
1777399154904,1791513,-0.68,0.46,-0.61,2.75,-2.56,5.13
1777399154904,1791523,-0.67,0.46,-0.60,2.32,-1.04,4.52
1777399154904,1791533,-0.66,0.46,-0.60,1.65,0.18,3.85
1777399154904,1791543,-0.64,0.46,-0.58,1.04,0.55,2.75
1777399154905,1791553,-0.64,0.46,-0.57,0.85,-0.24,1.16
1777399154905,1791563,-0.64,0.46,-0.57,1.04,-1.34,0.06
1777399154905,1791573,-0.63,0.46,-0.57,0.98,-1.83,-0.98
1777399154905,1791583,-0.64,0.47,-0.56,1.10,-2.14,-1.77
1777399154905,1791593,-0.63,0.46,-0.55,0.49,-1.34,-2.81
1777399154905,1791603,-0.64,0.47,-0.54,0.37,-0.24,-3.42
1777399154905,1791613,-0.64,0.47,-0.53,0.49,0.55,-4.03
1777399154905,1791623,-0.65,0.46,-0.51,0.92,0.85,-4.64
1777399154906,1791633,-0.65,0.47,-0.51,1.65,0.31,-5.37
1777399154906,1791643,-0.66,0.47,-0.51,2.20,-0.55,-5.98
1777399154906,1791653,-0.66,0.47,-0.51,2.56,-1.22,-6.96
1777399154906,1791673,-0.66,0.48,-0.50,1.53,-2.08,-7.75
1777399154906,1791693,-0.66,0.48,-0.50,1.28,-2.14,-8.79
1777399154906,1791713,-0.67,0.47,-0.49,0.49,-2.08,-9.28
1777399154906,1791733,-0.66,0.49,-0.48,0.00,-4.39,-8.67
1777399154907,1791743,-0.65,0.49,-0.48,0.12,-5.62,-8.06
1777399154907,1791753,-0.65,0.51,-0.47,0.31,-6.23,-8.06
1777399154907,1791763,-0.65,0.51,-0.46,0.79,-6.90,-8.54
1777399154907,1791773,-0.65,0.51,-0.45,1.53,-7.20,-9.52
1777399154907,1791783,-0.65,0.52,-0.45,2.93,-7.63,-10.62
1777399154907,1791793,-0.66,0.52,-0.46,4.58,-7.81,-11.54
1777399154907,1791803,-0.67,0.52,-0.47,5.49,-7.81,-12.15
1777399154907,1791813,-0.68,0.52,-0.48,5.62,-7.39,-12.02
1777399154908,1791823,-0.68,0.51,-0.47,5.68,-6.65,-11.23
1777399154908,1791833,-0.69,0.51,-0.47,5.98,-6.16,-10.19
1777399154908,1791843,-0.68,0.51,-0.46,6.77,-5.68,-9.22
1777399154908,1791853,-0.68,0.51,-0.46,7.81,-5.37,-9.09
1777399154908,1791863,-0.67,0.51,-0.47,9.09,-5.62,-9.16
1777399154908,1791873,-0.67,0.52,-0.48,10.25,-5.55,-9.16
1777399154908,1791883,-0.68,0.52,-0.48,10.68,-5.25,-9.64
1777399154909,1791893,-0.68,0.53,-0.48,10.80,-4.82,-10.19
1777399154909,1791903,-0.69,0.52,-0.48,11.35,-4.58,-10.74
1777399154909,1791913,-0.70,0.52,-0.48,12.39,-4.52,-11.35
1777399154909,1791923,-0.72,0.52,-0.49,13.43,-4.88,-12.02
1777399154909,1791933,-0.75,0.51,-0.49,14.40,-5.68,-12.15
1777399154909,1791943,-0.78,0.49,-0.51,15.38,-6.77,-11.78
1777399154909,1791953,-0.81,0.48,-0.52,16.05,-7.81,-11.90
1777399154909,1791963,-0.84,0.46,-0.54,15.93,-8.18,-11.72
1777399154910,1791973,-0.86,0.44,-0.56,15.87,-8.00,-9.70
1777399154910,1791983,-0.87,0.42,-0.58,15.44,-6.96,-6.47
1777399154910,1791993,-0.87,0.41,-0.60,13.73,-5.37,-2.81
1777399154910,1792003,-0.85,0.40,-0.60,11.17,-3.91,5.00
1777399154910,1792023,-0.77,0.40,-0.58,5.80,-5.25,9.34
1777399154910,1792043,-0.67,0.42,-0.57,5.55,-8.36,9.09
1777399154910,1792063,-0.63,0.43,-0.58,3.97,-8.97,7.14
1777399154910,1792073,-0.62,0.43,-0.57,2.62,-7.57,6.04
1777399154910,1792083,-0.61,0.43,-0.56,1.65,-6.41,4.70
1777399154911,1792093,-0.61,0.43,-0.55,1.16,-5.74,2.87
1777399154911,1792103,-0.61,0.43,-0.54,1.10,-5.55,0.79
1777399154911,1792113,-0.62,0.43,-0.54,1.53,-5.62,-1.16
1777399154911,1792123,-0.63,0.43,-0.54,2.32,-5.25,-2.56
1777399154911,1792133,-0.64,0.43,-0.54,2.87,-4.64,-3.72
1777399154911,1792143,-0.65,0.43,-0.54,2.75,-3.91,-4.88
1777399154911,1792153,-0.66,0.44,-0.54,2.26,-3.36,-5.62
1777399154911,1792163,-0.67,0.43,-0.54,1.65,-3.23,-5.92
1777399154912,1792173,-0.68,0.43,-0.54,1.22,-3.11,-6.16
1777399154912,1792183,-0.68,0.43,-0.54,1.10,-3.17,-6.23
1777399154912,1792193,-0.67,0.43,-0.54,0.55,-2.99,-6.16
1777399154912,1792203,-0.68,0.43,-0.54,0.00,-2.75,-5.98
1777399154912,1792213,-0.68,0.43,-0.54,-0.49,-2.75,-5.80
1777399154912,1792223,-0.68,0.43,-0.53,-0.67,-2.99,-5.74
1777399154912,1792233,-0.68,0.44,-0.53,-0.61,-3.48,-5.74
1777399154912,1792243,-0.67,0.45,-0.52,-0.55,-4.21,-6.04
1777399154913,1792253,-0.67,0.46,-0.52,-0.49,-5.25,-6.41
1777399154913,1792263,-0.67,0.46,-0.52,-0.49,-6.16,-6.96
1777399154913,1792273,-0.67,0.47,-0.52,-0.67,-7.20,-7.51
1777399154913,1792283,-0.68,0.47,-0.51,-0.49,-8.54,-7.63
1777399154913,1792293,-0.68,0.47,-0.52,0.31,-10.38,-7.87
1777399154913,1792303,-0.69,0.48,-0.54,1.22,-12.08,-8.18
1777399154913,1792313,-0.69,0.48,-0.56,1.16,-11.60,-8.00
1777399154913,1792323,-0.70,0.48,-0.58,-0.18,-9.64,-8.42
1777399154914,1792333,-0.72,0.48,-0.58,-2.56,-6.23,-8.91
1777399154914,1792343,-0.73,0.47,-0.56,-4.64,-3.17,-7.81
1777399154914,1792363,-0.72,0.47,-0.52,-4.58,-4.70,-5.49
1777399154914,1792383,-0.72,0.49,-0.51,-1.34,-9.95,-4.52
1777399154914,1792403,-0.69,0.50,-0.49,-0.67,-10.44,-4.39
1777399154914,1792423,-0.68,0.51,-0.46,2.20,-13.49,-4.03
1777399154914,1792433,-0.68,0.52,-0.47,3.54,-14.95,-4.21
1777399154914,1792443,-0.67,0.52,-0.48,4.03,-14.95,-4.46
1777399154915,1792453,-0.66,0.51,-0.48,4.39,-13.31,-4.52
1777399154915,1792463,-0.66,0.51,-0.48,5.07,-10.80,-4.76
1777399154915,1792473,-0.67,0.51,-0.48,5.25,-7.75,-5.49
1777399154915,1792483,-0.69,0.50,-0.48,5.07,-4.76,-6.16
1777399154915,1792493,-0.70,0.49,-0.48,4.58,-2.44,-6.35
1777399154915,1792503,-0.72,0.48,-0.49,3.97,-1.34,-6.04
1777399154915,1792513,-0.72,0.48,-0.49,3.36,-1.65,-5.74
1777399154915,1792523,-0.72,0.47,-0.48,2.93,-2.75,-5.13
1777399154916,1792533,-0.71,0.47,-0.48,3.23,-4.21,-4.88
1777399154916,1792543,-0.71,0.46,-0.49,3.97,-5.13,-5.07
1777399154916,1792553,-0.70,0.46,-0.50,4.58,-5.25,-5.55
1777399154916,1792563,-0.70,0.46,-0.50,4.70,-4.58,-6.04
1777399154916,1792573,-0.70,0.46,-0.50,4.70,-3.42,-6.59
1777399154916,1792583,-0.70,0.46,-0.50,4.76,-2.62,-6.90
1777399154916,1792593,-0.69,0.47,-0.51,4.52,-2.32,-7.39
1777399154917,1792603,-0.69,0.48,-0.51,3.85,-2.75,-7.63
1777399154917,1792613,-0.68,0.48,-0.51,3.17,-3.66,-7.26
1777399154917,1792623,-0.68,0.48,-0.50,2.75,-4.52,-7.02
1777399154917,1792633,-0.68,0.47,-0.50,2.99,-5.13,-7.14
1777399154917,1792643,-0.69,0.47,-0.50,3.36,-5.49,-7.20
1777399154917,1792653,-0.70,0.47,-0.50,3.60,-5.92,-7.14
1777399154917,1792663,-0.70,0.47,-0.50,3.72,-6.41,-6.84
1777399154917,1792673,-0.70,0.47,-0.50,3.78,-6.96,-7.02
1777399154917,1792683,-0.70,0.47,-0.50,3.66,-7.20,-7.20
1777399154918,1792693,-0.69,0.47,-0.51,3.72,-6.84,-6.16
1777399154918,1792713,-0.69,0.46,-0.52,1.59,-3.72,-6.77
1777399154918,1792733,-0.71,0.46,-0.51,0.85,-6.16,-6.35
1777399154918,1792753,-0.72,0.44,-0.50,0.61,-9.46,-4.94
1777399154918,1792763,-0.72,0.44,-0.50,1.16,-10.50,-5.37
1777399154918,1792773,-0.72,0.44,-0.51,2.01,-10.62,-5.80
1777399154918,1792783,-0.72,0.44,-0.51,2.50,-9.70,-6.10
1777399154918,1792793,-0.72,0.44,-0.52,2.44,-8.36,-6.16
1777399154919,1792803,-0.73,0.44,-0.52,2.08,-7.02,-5.98
1777399154919,1792813,-0.73,0.44,-0.51,2.14,-6.23,-5.68
1777399154919,1792823,-0.73,0.44,-0.51,2.26,-5.80,-5.62
1777399154919,1792833,-0.74,0.44,-0.51,2.20,-5.37,-5.86
1777399154919,1792843,-0.74,0.44,-0.50,2.93,-5.37,-5.49
1777399154919,1792853,-0.74,0.45,-0.50,4.09,-6.04,-4.88
1777399154919,1792863,-0.74,0.44,-0.50,5.13,-6.90,-4.27
1777399154919,1792873,-0.74,0.44,-0.51,6.10,-7.20,-4.27
1777399154920,1792883,-0.73,0.44,-0.52,6.84,-6.71,-4.52
1777399154920,1792893,-0.73,0.45,-0.54,6.90,-5.31,-4.46
1777399154920,1792903,-0.74,0.44,-0.54,6.10,-3.54,-3.60
1777399154920,1792913,-0.74,0.44,-0.53,5.31,-2.38,-2.69
1777399154920,1792923,-0.73,0.44,-0.53,4.76,-2.32,-1.95
1777399154920,1792933,-0.73,0.44,-0.53,4.70,-3.42,-1.59
1777399154920,1792943,-0.72,0.45,-0.54,4.70,-4.58,-1.59
1777399154920,1792953,-0.71,0.45,-0.55,4.52,-5.25,-1.71
1777399154920,1792963,-0.71,0.44,-0.55,3.97,-5.31,-1.71
1777399154921,1792973,-0.71,0.45,-0.54,3.48,-4.76,-2.08
1777399154921,1792983,-0.71,0.45,-0.54,2.93,-4.15,-2.32
1777399154921,1792993,-0.71,0.44,-0.54,1.95,-3.78,-2.38
1777399154921,1793003,-0.72,0.44,-0.53,1.04,-3.42,-2.38
1777399154921,1793013,-0.71,0.45,-0.53,0.49,-3.48,-2.56
1777399154921,1793023,-0.71,0.45,-0.52,0.06,-3.91,-2.56
1777399154921,1793033,-0.71,0.45,-0.52,-0.12,-4.76,-2.75
1777399154921,1793053,-0.71,0.46,-0.51,-0.79,-6.90,-2.38
1777399154921,1793073,-0.70,0.45,-0.49,-1.28,-6.10,-2.08
1777399154922,1793093,-0.68,0.46,-0.48,-0.92,-4.94,-3.36
1777399154922,1793113,-0.69,0.46,-0.48,-0.18,-5.00,-4.76
1777399154922,1793123,-0.70,0.47,-0.47,0.24,-5.49,-5.43
1777399154922,1793133,-0.70,0.48,-0.48,0.85,-6.35,-5.37
1777399154922,1793143,-0.70,0.47,-0.48,1.04,-6.77,-5.19
1777399154922,1793153,-0.71,0.47,-0.48,1.40,-7.02,-5.00
1777399154922,1793163,-0.71,0.47,-0.49,1.59,-6.96,-4.39
1777399154922,1793173,-0.71,0.48,-0.49,1.04,-6.35,-4.15
1777399154923,1793183,-0.71,0.47,-0.48,0.55,-5.37,-3.91
1777399154923,1793193,-0.71,0.47,-0.48,0.61,-4.58,-3.97
1777399154923,1793203,-0.71,0.47,-0.47,1.16,-4.39,-4.21
1777399154923,1793213,-0.72,0.47,-0.47,1.89,-4.88,-4.76
1777399154923,1793223,-0.72,0.46,-0.48,2.62,-5.92,-4.82
1777399154933,1793233,-0.72,0.46,-0.49,2.69,-7.02,-4.76
1777399154943,1793243,-0.72,0.47,-0.50,1.89,-7.81,-4.33
1777399154953,1793253,-0.72,0.47,-0.50,0.67,-8.12,-3.48
1777399154963,1793263,-0.72,0.45,-0.48,-0.31,-8.54,-3.17
1777399154973,1793273,-0.73,0.45,-0.48,0.12,-9.28,-2.99
1777399154983,1793283,-0.73,0.45,-0.48,1.10,-10.19,-2.32
1777399154993,1793293,-0.74,0.44,-0.48,1.77,-11.41,-1.46
1777399155003,1793303,-0.76,0.43,-0.47,1.89,-12.02,-1.40
1777399155013,1793313,-0.78,0.43,-0.46,2.38,-11.96,-1.77
1777399155023,1793323,-0.81,0.43,-0.46,3.05,-11.60,-1.40
1777399155033,1793333,-0.85,0.42,-0.45,3.17,-10.56,0.12
1777399155043,1793343,-0.91,0.40,-0.44,3.17,-8.97,1.83
1777399155053,1793353,-0.98,0.39,-0.41,3.42,-7.45,2.93
1777399155063,1793363,-1.06,0.38,-0.37,5.37,-8.42,2.93
1777399155073,1793373,-1.14,0.39,-0.36,9.34,-13.06,4.39
1777399155083,1793383,-1.18,0.45,-0.38,15.01,-19.35,18.07
1777399155103,1793403,-1.11,0.64,-0.40,31.92,-33.33,33.02
1777399155123,1793423,-0.43,1.31,-1.51,83.07,-0.73,19.84
1777399155143,1793443,1.02,3.09,-3.54,139.95,139.53,43.09
1777399155163,1793463,2.39,4.00,-4.00,62.87,226.62,55.18
1777399155173,1793473,2.39,4.00,-3.91,-20.14,163.39,8.54
1777399155183,1793483,2.42,3.94,-2.81,-110.53,54.08,-62.87
1777399155193,1793493,2.59,3.47,-1.81,-142.76,-80.69,-138.85
1777399155203,1793503,3.02,2.60,-1.20,-118.10,-197.02,-227.84
1777399155213,1793513,3.25,1.58,-1.10,-76.97,-256.16,-343.51
1777399155223,1793523,2.61,0.29,-0.50,-64.21,-221.56,-473.08
1777399155233,1793533,1.53,-1.03,0.53,-73.97,-141.05,-567.99
1777399155243,1793543,0.43,-2.37,1.74,-44.13,-81.85,-584.47
1777399155253,1793553,-0.29,-3.32,1.73,33.39,-107.48,-522.58
1777399155263,1793563,0.36,-3.94,0.22,62.38,-156.98,-409.36
1777399155273,1793573,1.20,-4.00,-0.53,-60.18,-88.68,-354.43
1777399155283,1793583,0.35,-4.00,0.69,-231.57,78.92,-401.37
1777399155293,1793593,-1.09,-4.00,1.88,-261.72,187.19,-459.35
1777399155306,1793603,-2.33,-4.00,2.20,-177.61,170.47,-465.33
1777399155314,1793613,-3.35,-4.00,1.92,-83.50,78.06,-422.18
1777399155323,1793623,-3.95,-3.32,1.57,-8.30,-20.57,-341.31
1777399155333,1793633,-3.92,-2.38,1.33,20.51,-87.52,-223.88
1777399155343,1793643,-3.37,-2.05,1.14,11.47,-103.58,-77.64
1777399155353,1793653,-2.48,-2.08,1.00,-8.54,-69.58,78.43
1777399155363,1793663,-1.41,-2.36,0.86,-21.18,-8.67,217.04
1777399155373,1793673,-0.44,-2.73,0.75,-26.25,53.04,307.13
1777399155383,1793683,0.23,-2.89,0.69,-27.47,93.99,342.96
1777399155393,1793693,0.62,-2.85,0.65,-17.88,108.03,346.98
1777399155403,1793703,0.87,-2.61,0.53,6.23,105.59,335.94
1777399155413,1793713,0.99,-2.19,0.44,38.82,101.32,320.31
1777399155423,1793723,1.04,-1.71,-0.07,65.98,100.16,269.71
1777399155443,1793743,0.72,-0.93,-0.23,64.70,148.99,254.39
1777399155463,1793763,0.48,-0.18,-0.50,39.37,114.87,245.06
1777399155483,1793783,0.18,0.40,-0.73,30.82,33.33,207.21
1777399155503,1793803,0.16,1.01,-1.04,54.99,-1.53,186.28
1777399155513,1793813,0.17,1.16,-1.16,55.11,-0.49,179.14
1777399155523,1793823,0.18,1.25,-1.27,47.97,1.65,169.19
1777399155533,1793833,0.17,1.35,-1.43,37.17,5.25,157.71
1777399155543,1793843,0.11,1.56,-1.52,20.39,13.37,147.58
1777399155553,1793853,0.15,1.70,-1.66,1.65,24.78,145.69
1777399155563,1793863,0.26,1.69,-1.74,-18.07,37.17,145.57
1777399155573,1793873,0.37,1.69,-1.77,-41.08,43.52,136.84
1777399155583,1793883,0.45,1.65,-1.75,-64.03,38.94,122.62
1777399155593,1793893,0.46,1.52,-1.60,-81.24,26.98,109.92
1777399155603,1793903,0.47,1.37,-1.46,-83.13,11.84,95.95
1777399155613,1793913,0.41,1.20,-1.35,-68.66,-4.82,74.28
1777399155623,1793923,0.28,1.09,-1.22,-48.10,-21.55,43.21
1777399155633,1793933,0.07,0.97,-1.14,-25.57,-38.64,10.44
1777399155643,1793943,-0.18,0.83,-1.07,-3.36,-53.83,-17.15
1777399155653,1793953,-0.34,0.68,-1.11,16.36,-66.59,-35.71
1777399155663,1793963,-0.49,0.61,-1.20,24.66,-74.10,-48.28
1777399155673,1793973,-0.68,0.57,-1.19,15.99,-75.07,-54.93
1777399155683,1793983,-0.80,0.51,-1.10,-2.14,-73.85,-52.98
1777399155693,1793993,-0.86,0.44,-1.02,-18.31,-72.45,-45.17
1777399155703,1794003,-0.90,0.43,-0.90,-29.85,-68.54,-35.83
1777399155713,1794013,-0.88,0.43,-0.79,-36.38,-62.50,-25.15
1777399155723,1794023,-0.84,0.40,-0.71,-38.21,-55.85,-15.99
1777399155733,1794033,-0.78,0.41,-0.66,-36.25,-47.24,-11.96
1777399155743,1794043,-0.74,0.45,-0.62,-32.29,-36.01,-10.80
1777399155753,1794053,-0.70,0.48,-0.58,-28.50,-24.54,-9.77
1777399155763,1794063,-0.68,0.49,-0.54,-25.94,-14.95,-9.34
1777399155773,1794073,-0.68,0.49,-0.51,-23.99,-8.24,-10.50
1777399155793,1794093,-0.68,0.47,-0.47,-10.13,-5.25,-8.85
1777399155813,1794113,-0.67,0.46,-0.56,-3.36,-2.08,-8.73
1777399155833,1794133,-0.64,0.48,-0.59,-5.31,3.05,-3.36
1777399155853,1794153,-0.61,0.47,-0.56,-7.32,4.52,0.73
1777399155863,1794163,-0.59,0.49,-0.56,-6.77,2.44,0.73
