host_time_ms,arduino_time_ms,ax,ay,az,gx,gy,gz
1777399331866,1965306,-0.42,-0.75,0.06,165.10,8.30,26.31
1777399331866,1965326,-0.54,-0.72,0.26,148.25,1.89,41.69
1777399331867,1965336,-0.53,-0.65,0.21,140.38,-15.08,54.87
1777399331867,1965346,-0.67,-0.64,0.47,120.36,-30.40,54.02
1777399331867,1965356,-0.72,-0.51,0.45,60.61,-56.70,40.16
1777399331867,1965366,-0.69,-0.70,-0.09,36.25,-73.67,37.66
1777399331868,1965376,-0.67,-1.03,-0.05,74.46,-62.13,44.13
1777399331868,1965386,-0.68,-0.91,0.22,127.38,-44.62,36.56
1777399331868,1965396,-0.69,-0.68,0.59,152.28,-35.71,27.71
1777399331868,1965406,-0.73,-0.68,0.64,134.40,-42.18,25.45
1777399331869,1965416,-0.79,-0.82,0.52,108.34,-47.00,29.24
1777399331869,1965426,-0.84,-0.88,0.49,91.13,-42.42,33.45
1777399331869,1965436,-0.88,-0.88,0.42,79.59,-35.03,33.33
1777399331869,1965446,-0.87,-0.89,0.40,70.31,-21.24,33.20
1777399331870,1965456,-0.87,-0.93,0.40,60.24,-5.00,33.45
1777399331870,1965466,-0.91,-0.97,0.43,51.70,9.16,31.56
1777399331870,1965476,-0.97,-1.03,0.51,47.12,16.54,24.72
1777399331870,1965486,-0.94,-1.10,0.58,48.95,8.79,12.27
1777399331871,1965496,-0.92,-1.09,0.62,54.87,-11.41,-2.93
1777399331871,1965506,-0.84,-1.02,0.59,58.59,-31.68,-15.63
1777399331871,1965516,-0.75,-0.97,0.57,57.80,-41.63,-20.63
1777399331872,1965526,-0.73,-0.95,0.54,52.61,-40.16,-21.48
1777399331872,1965536,-0.72,-0.96,0.55,46.26,-32.29,-19.53
1777399331872,1965546,-0.73,-0.94,0.57,40.89,-21.36,-19.17
1777399331872,1965556,-0.73,-0.92,0.58,37.41,-11.90,-18.55
1777399331873,1965566,-0.76,-0.91,0.61,36.01,-4.33,-18.98
1777399331873,1965576,-0.76,-0.89,0.66,36.01,-0.37,-20.32
1777399331873,1965586,-0.74,-0.85,0.69,35.10,-1.22,-22.64
1777399331873,1965596,-0.70,-0.82,0.69,31.43,-5.19,-22.22
1777399331874,1965616,-0.63,-0.74,0.65,13.49,-11.96,-16.30
1777399331874,1965636,-0.63,-0.68,0.54,2.99,-7.57,-5.25
1777399331874,1965656,-0.63,-0.60,0.49,2.93,1.59,1.10
1777399331874,1965676,-0.64,-0.61,0.47,-3.17,8.00,2.14
1777399331875,1965686,-0.65,-0.60,0.47,-4.76,7.81,1.59
1777399331875,1965696,-0.66,-0.61,0.48,-6.41,5.00,1.77
1777399331875,1965706,-0.63,-0.59,0.49,-6.90,1.22,1.34
1777399331875,1965716,-0.62,-0.58,0.48,-9.28,-2.26,-0.49
1777399331876,1965726,-0.61,-0.58,0.46,-11.78,-2.87,0.06
1777399331876,1965736,-0.60,-0.57,0.45,-12.08,0.79,3.36
1777399331876,1965746,-0.60,-0.55,0.46,-11.84,7.08,7.20
1777399331876,1965756,-0.62,-0.53,0.46,-12.70,14.22,11.29
1777399331876,1965766,-0.63,-0.51,0.46,-14.89,21.55,14.77
1777399331877,1965776,-0.57,-0.41,0.48,-19.59,28.50,14.95
1777399331877,1965786,-0.73,-0.55,0.50,-29.17,33.57,19.84
1777399331877,1965796,-0.76,-0.55,0.50,-34.12,33.69,21.55
1777399331877,1965806,-0.72,-0.56,0.48,-30.27,26.49,17.58
1777399331878,1965816,-0.71,-0.54,0.44,-24.54,18.13,12.51
1777399331878,1965826,-0.69,-0.49,0.41,-20.81,12.94,9.77
1777399331878,1965836,-0.68,-0.50,0.39,-19.71,11.90,9.52
1777399331878,1965846,-0.67,-0.51,0.38,-18.25,12.88,8.91
1777399331879,1965856,-0.66,-0.50,0.36,-15.56,14.22,7.63
1777399331879,1965866,-0.69,-0.49,0.36,-12.51,17.21,6.90
1777399331879,1965876,-0.70,-0.51,0.38,-9.40,21.91,5.98
1777399331879,1965886,-0.70,-0.51,0.41,-7.51,24.78,4.03
1777399331879,1965896,-0.71,-0.52,0.45,-7.45,25.02,2.38
1777399331880,1965906,-0.71,-0.53,0.45,-8.79,22.28,1.22
1777399331880,1965916,-0.70,-0.53,0.45,-10.25,17.76,-0.24
1777399331880,1965926,-0.69,-0.54,0.44,-11.11,12.39,-1.46
1777399331880,1965936,-0.67,-0.55,0.42,-10.74,7.14,-3.23
1777399331880,1965956,-0.63,-0.56,0.37,-1.89,-0.98,-7.87
1777399331881,1965976,-0.63,-0.58,0.35,6.23,3.11,-5.13
1777399331881,1965996,-0.66,-0.51,0.40,14.89,6.59,-5.80
1777399331881,1966016,-0.68,-0.54,0.45,5.49,3.66,-1.40
1777399331881,1966026,-0.71,-0.53,0.45,1.34,-0.61,1.53
1777399331881,1966036,-0.72,-0.55,0.43,-2.81,-5.43,3.42
1777399331882,1966046,-0.73,-0.57,0.42,-5.25,-9.58,4.03
1777399331882,1966056,-0.74,-0.56,0.39,-5.80,-13.61,2.75
1777399331882,1966066,-0.72,-0.56,0.37,-5.31,-15.87,0.31
1777399331882,1966076,-0.70,-0.56,0.36,-5.13,-15.44,-1.46
1777399331882,1966086,-0.68,-0.55,0.36,-4.88,-13.73,-1.53
1777399331883,1966096,-0.68,-0.53,0.36,-4.76,-11.90,-0.18
1777399331883,1966106,-0.69,-0.52,0.37,-4.88,-10.56,1.89
1777399331883,1966116,-0.71,-0.53,0.38,-5.19,-10.50,3.91
1777399331883,1966126,-0.72,-0.53,0.38,-5.80,-11.96,4.70
1777399331883,1966136,-0.72,-0.53,0.38,-6.47,-14.28,4.52
1777399331883,1966146,-0.70,-0.54,0.37,-7.32,-17.58,4.15
1777399331884,1966156,-0.70,-0.54,0.37,-7.14,-20.39,4.27
1777399331884,1966166,-0.70,-0.53,0.37,-6.29,-22.28,4.70
1777399331884,1966176,-0.71,-0.53,0.37,-5.25,-23.32,5.07
1777399331884,1966186,-0.71,-0.53,0.38,-4.39,-23.62,5.49
1777399331884,1966196,-0.71,-0.53,0.39,-4.33,-24.05,6.10
1777399331885,1966206,-0.71,-0.52,0.39,-4.46,-23.74,6.59
1777399331885,1966216,-0.71,-0.53,0.40,-4.33,-22.28,6.96
1777399331885,1966226,-0.72,-0.53,0.41,-4.27,-20.51,7.93
1777399331885,1966236,-0.73,-0.52,0.43,-4.39,-19.35,8.54
1777399331886,1966246,-0.73,-0.53,0.43,-5.00,-19.04,8.73
1777399331886,1966256,-0.73,-0.52,0.44,-5.43,-18.62,9.03
1777399331886,1966266,-0.74,-0.53,0.44,-5.74,-18.43,9.58
1777399331886,1966276,-0.74,-0.54,0.45,-5.80,-18.68,9.40
1777399331886,1966286,-0.73,-0.54,0.45,-6.23,-18.62,7.39
1777399331887,1966306,-0.73,-0.53,0.44,-7.32,-14.10,8.85
1777399331887,1966326,-0.75,-0.54,0.46,-7.02,-11.47,8.12
1777399331887,1966346,-0.79,-0.55,0.45,-7.08,-10.44,5.98
1777399331887,1966366,-0.77,-0.55,0.44,-4.46,-7.39,1.53
1777399331887,1966376,-0.75,-0.54,0.42,-3.42,-5.68,-0.31
1777399331887,1966386,-0.75,-0.54,0.41,-2.87,-3.48,-0.12
1777399331888,1966396,-0.76,-0.55,0.42,-1.95,-0.67,0.24
1777399331888,1966406,-0.76,-0.54,0.42,-1.34,0.79,-1.16
1777399331888,1966416,-0.75,-0.52,0.40,-1.16,0.67,-2.62
1777399331888,1966426,-0.74,-0.52,0.39,-0.92,0.61,-2.69
1777399331888,1966436,-0.74,-0.53,0.38,0.00,0.79,-1.95
1777399331888,1966446,-0.74,-0.53,0.39,1.89,0.31,-2.01
1777399331889,1966456,-0.73,-0.51,0.37,3.66,-1.28,-3.17
1777399331889,1966466,-0.72,-0.51,0.36,4.76,-2.08,-3.78
1777399331889,1966476,-0.72,-0.52,0.36,6.47,-1.71,-3.54
1777399331889,1966486,-0.73,-0.52,0.37,8.30,-0.55,-4.58
1777399331889,1966496,-0.73,-0.52,0.37,10.19,0.12,-6.59
1777399331889,1966506,-0.73,-0.51,0.37,12.51,0.73,-8.54
1777399331890,1966516,-0.73,-0.51,0.36,14.83,1.71,-9.95
1777399331890,1966526,-0.73,-0.52,0.38,16.97,2.50,-10.68
1777399331890,1966536,-0.73,-0.52,0.39,19.23,1.65,-11.78
1777399331890,1966546,-0.72,-0.51,0.40,21.73,0.12,-12.33
1777399331890,1966556,-0.72,-0.51,0.41,23.50,-1.10,-11.78
1777399331891,1966566,-0.71,-0.52,0.41,24.17,-2.08,-11.17
1777399331891,1966576,-0.72,-0.52,0.42,24.41,-2.99,-10.50
1777399331891,1966586,-0.72,-0.52,0.42,25.09,-3.48,-9.89
1777399331891,1966596,-0.72,-0.51,0.43,25.51,-3.23,-9.89
1777399331891,1966606,-0.71,-0.51,0.43,25.21,-3.17,-9.89
1777399331891,1966616,-0.71,-0.50,0.44,24.66,-3.54,-9.64
1777399331892,1966626,-0.72,-0.50,0.44,23.99,-3.42,-8.85
1777399331892,1966636,-0.71,-0.50,0.45,23.44,-3.48,-8.06
1777399331892,1966656,-0.71,-0.51,0.46,20.14,-4.27,-6.10
1777399331892,1966676,-0.70,-0.51,0.46,18.92,-7.81,-5.49
1777399331892,1966696,-0.68,-0.51,0.46,16.72,-10.62,-4.70
1777399331892,1966706,-0.68,-0.50,0.47,15.75,-10.80,-3.54
1777399331893,1966716,-0.66,-0.50,0.46,14.22,-10.31,-2.26
1777399331893,1966726,-0.66,-0.50,0.46,12.27,-8.97,-0.37
1777399331893,1966736,-0.67,-0.51,0.47,10.13,-7.81,1.34
1777399331893,1966746,-0.66,-0.51,0.48,8.61,-8.00,2.50
1777399331893,1966756,-0.67,-0.52,0.49,7.69,-9.16,4.15
1777399331893,1966766,-0.69,-0.52,0.50,6.10,-10.31,5.80
1777399331894,1966776,-0.70,-0.53,0.51,5.19,-12.02,6.77
1777399331894,1966786,-0.71,-0.54,0.52,4.09,-13.79,7.32
1777399331894,1966796,-0.72,-0.54,0.52,3.17,-15.81,7.32
1777399331894,1966806,-0.72,-0.53,0.52,1.89,-16.97,7.14
1777399331894,1966816,-0.71,-0.52,0.52,0.00,-15.99,7.63
1777399331894,1966826,-0.72,-0.52,0.52,-2.56,-12.94,8.73
1777399331895,1966836,-0.73,-0.53,0.53,-5.00,-9.89,9.52
1777399331895,1966846,-0.74,-0.53,0.53,-7.14,-8.30,9.40
1777399331895,1966856,-0.75,-0.53,0.53,-9.40,-8.30,9.28
1777399331895,1966866,-0.76,-0.53,0.53,-11.47,-9.58,9.03
1777399331895,1966876,-0.75,-0.52,0.52,-13.24,-11.54,8.18
1777399331895,1966886,-0.75,-0.52,0.50,-14.89,-13.00,8.00
1777399331896,1966896,-0.75,-0.51,0.49,-15.56,-13.06,8.54
1777399331896,1966906,-0.76,-0.51,0.49,-15.44,-12.21,8.54
1777399331896,1966916,-0.75,-0.51,0.48,-15.69,-10.62,7.45
1777399331896,1966926,-0.76,-0.49,0.49,-16.24,-9.89,5.86
1777399331896,1966936,-0.75,-0.49,0.49,-16.24,-10.80,5.13
1777399331896,1966946,-0.73,-0.47,0.47,-16.24,-12.02,5.19
1777399331896,1966956,-0.72,-0.47,0.47,-16.97,-12.63,5.55
1777399331897,1966966,-0.72,-0.48,0.47,-17.64,-12.82,6.04
1777399331897,1966976,-0.72,-0.47,0.46,-18.01,-12.45,5.37
1777399331897,1966996,-0.71,-0.46,0.45,-21.24,-11.96,5.31
1777399331897,1967016,-0.70,-0.47,0.44,-21.30,-9.58,5.19
1777399331897,1967036,-0.72,-0.48,0.45,-19.41,-11.41,5.62
1777399331897,1967056,-0.72,-0.48,0.45,-18.37,-15.75,3.97
1777399331898,1967066,-0.71,-0.49,0.44,-18.25,-17.03,3.36
1777399331898,1967076,-0.69,-0.48,0.44,-17.76,-17.64,3.11
1777399331898,1967086,-0.68,-0.48,0.43,-17.03,-17.15,3.30
1777399331898,1967096,-0.67,-0.49,0.43,-16.54,-15.56,4.21
1777399331898,1967106,-0.68,-0.50,0.44,-15.99,-13.67,5.49
1777399331898,1967116,-0.69,-0.51,0.47,-15.50,-13.18,5.68
1777399331899,1967126,-0.70,-0.51,0.48,-15.08,-15.01,4.88
1777399331899,1967136,-0.70,-0.51,0.48,-14.40,-18.01,4.33
1777399331899,1967146,-0.70,-0.51,0.48,-13.49,-20.08,4.46
1777399331899,1967156,-0.70,-0.51,0.49,-12.63,-21.24,4.82
1777399331899,1967166,-0.71,-0.51,0.50,-11.78,-22.09,5.37
1777399331899,1967176,-0.71,-0.51,0.50,-11.17,-22.09,5.25
1777399331899,1967186,-0.70,-0.49,0.50,-11.23,-20.57,5.31
1777399331900,1967196,-0.70,-0.49,0.51,-12.88,-18.01,6.47
1777399331900,1967206,-0.71,-0.49,0.51,-15.69,-15.93,7.32
1777399331900,1967216,-0.72,-0.48,0.50,-17.40,-14.22,7.63
1777399331900,1967226,-0.72,-0.48,0.49,-19.04,-12.45,7.81
1777399331900,1967236,-0.73,-0.48,0.48,-19.84,-10.50,8.30
1777399331900,1967246,-0.74,-0.47,0.49,-19.84,-8.30,8.48
1777399331901,1967256,-0.76,-0.47,0.49,-18.92,-7.26,8.73
1777399331901,1967266,-0.78,-0.47,0.49,-17.64,-7.39,8.54
1777399331901,1967276,-0.78,-0.45,0.49,-16.48,-7.87,7.81
1777399331901,1967286,-0.78,-0.45,0.48,-15.93,-8.30,6.71
1777399331901,1967296,-0.78,-0.44,0.46,-15.81,-8.12,5.43
1777399331901,1967306,-0.76,-0.44,0.44,-15.50,-7.57,4.03
1777399331901,1967316,-0.75,-0.44,0.43,-14.89,-6.53,2.69
1777399331902,1967326,-0.75,-0.45,0.42,-13.37,-5.19,1.28
1777399331902,1967346,-0.75,-0.44,0.42,-8.67,-4.82,0.67
1777399331902,1967366,-0.74,-0.44,0.42,-5.98,-9.09,-0.67
1777399331902,1967386,-0.72,-0.44,0.40,-3.78,-9.83,-0.55
1777399331902,1967396,-0.73,-0.44,0.41,-2.01,-9.09,-0.55
1777399331902,1967406,-0.73,-0.44,0.41,-0.24,-8.24,-0.73
1777399331902,1967416,-0.73,-0.45,0.41,0.49,-7.45,-0.98
1777399331903,1967426,-0.73,-0.45,0.42,1.16,-7.08,-1.04
1777399331903,1967436,-0.74,-0.46,0.42,1.83,-7.08,-1.16
1777399331903,1967446,-0.74,-0.47,0.43,2.44,-8.06,-0.98
1777399331903,1967456,-0.74,-0.47,0.43,3.60,-9.52,-0.55
1777399331903,1967466,-0.75,-0.47,0.43,4.46,-9.77,-0.37
1777399331903,1967476,-0.75,-0.48,0.44,4.27,-8.97,-0.24
1777399331903,1967486,-0.76,-0.48,0.45,4.21,-8.54,-0.18
1777399331904,1967496,-0.76,-0.48,0.45,4.46,-8.06,-0.12
1777399331904,1967506,-0.77,-0.47,0.46,4.21,-7.39,-0.06
1777399331904,1967516,-0.77,-0.47,0.46,3.30,-6.77,0.00
1777399331904,1967526,-0.76,-0.47,0.46,1.22,-6.59,-0.61
1777399331904,1967536,-0.76,-0.47,0.45,-0.43,-6.35,-1.04
1777399331904,1967546,-0.76,-0.47,0.45,-0.85,-5.98,-0.73
1777399331905,1967556,-0.76,-0.47,0.44,-0.98,-5.37,-0.12
1777399331905,1967566,-0.76,-0.47,0.44,-1.22,-4.76,0.31
1777399331905,1967576,-0.76,-0.46,0.44,-1.59,-3.78,0.49
1777399331905,1967586,-0.76,-0.46,0.43,-2.08,-3.11,0.61
1777399331905,1967596,-0.76,-0.46,0.43,-2.32,-2.75,0.61
1777399331905,1967606,-0.76,-0.46,0.43,-2.44,-2.75,0.18
1777399331905,1967616,-0.76,-0.46,0.43,-2.14,-3.11,-0.55
1777399331906,1967626,-0.76,-0.45,0.42,-1.71,-4.27,-1.53
1777399331906,1967636,-0.75,-0.45,0.41,-1.46,-5.31,-2.44
1777399331906,1967646,-0.73,-0.45,0.41,-1.28,-5.98,-2.75
1777399331906,1967656,-0.72,-0.46,0.41,-0.73,-6.29,-2.56
1777399331906,1967666,-0.72,-0.46,0.40,0.06,-6.29,-0.49
1777399331906,1967686,-0.72,-0.47,0.41,1.95,-5.68,1.04
1777399331906,1967706,-0.75,-0.47,0.44,2.56,-6.71,0.73
1777399331906,1967726,-0.76,-0.47,0.44,1.40,-8.36,-0.43
1777399331907,1967746,-0.77,-0.48,0.45,0.79,-7.57,-1.89
1777399331907,1967756,-0.76,-0.48,0.45,0.24,-7.63,-3.66
1777399331907,1967766,-0.75,-0.48,0.45,-0.55,-7.87,-4.58
1777399331907,1967776,-0.74,-0.48,0.45,-0.98,-8.24,-4.52
1777399331907,1967786,-0.74,-0.48,0.44,-0.67,-8.30,-4.09
1777399331907,1967796,-0.75,-0.48,0.45,-0.43,-7.81,-3.42
1777399331907,1967806,-0.76,-0.48,0.46,-0.61,-7.32,-3.05
1777399331908,1967816,-0.77,-0.47,0.47,-1.16,-6.90,-3.30
1777399331908,1967826,-0.76,-0.47,0.45,-1.89,-7.02,-3.48
1777399331908,1967836,-0.76,-0.46,0.45,-3.11,-5.92,-3.54
1777399331908,1967846,-0.77,-0.46,0.45,-3.54,-4.15,-2.87
1777399331908,1967856,-0.78,-0.46,0.45,-2.99,-3.42,-3.05
1777399331908,1967866,-0.78,-0.45,0.45,-3.05,-3.30,-4.27
1777399331908,1967876,-0.79,-0.45,0.44,-3.23,-4.33,-4.52
1777399331909,1967886,-0.79,-0.46,0.44,-2.44,-5.37,-4.58
1777399331909,1967896,-0.78,-0.45,0.44,-1.40,-6.41,-5.49
1777399331909,1967906,-0.78,-0.44,0.43,-0.67,-7.32,-6.71
1777399331909,1967916,-0.77,-0.44,0.43,-0.49,-7.39,-7.32
1777399331909,1967926,-0.76,-0.43,0.42,-0.43,-6.65,-7.51
1777399331909,1967936,-0.75,-0.43,0.41,-0.24,-5.37,-7.51
1777399331909,1967946,-0.75,-0.43,0.41,-0.31,-3.78,-7.32
1777399331910,1967956,-0.74,-0.43,0.41,-0.18,-2.50,-7.26
1777399331910,1967966,-0.74,-0.43,0.41,-0.18,-1.77,-7.14
1777399331910,1967976,-0.73,-0.43,0.41,0.55,-2.20,-6.84
1777399331910,1967986,-0.73,-0.43,0.41,1.71,-3.36,-6.53
1777399331910,1967996,-0.73,-0.44,0.41,3.11,-5.00,-6.29
1777399331910,1968006,-0.73,-0.44,0.41,4.76,-6.65,-6.35
1777399331910,1968016,-0.74,-0.45,0.41,6.41,-7.63,-6.41
1777399331910,1968036,-0.75,-0.45,0.43,9.22,-6.29,-5.80
1777399331911,1968056,-0.76,-0.45,0.45,8.91,-6.23,-5.37
1777399331911,1968076,-0.76,-0.47,0.45,7.57,-6.71,-5.98
1777399331911,1968096,-0.76,-0.48,0.46,7.93,-7.51,-4.88
1777399331911,1968106,-0.76,-0.47,0.46,8.12,-7.57,-4.52
1777399331911,1968116,-0.76,-0.47,0.47,7.39,-7.02,-4.09
1777399331911,1968126,-0.77,-0.47,0.47,6.04,-6.04,-3.91
1777399331911,1968136,-0.77,-0.47,0.47,4.64,-5.37,-4.15
1777399331912,1968146,-0.76,-0.46,0.46,3.42,-4.94,-4.76
1777399331912,1968156,-0.76,-0.46,0.45,2.44,-4.33,-5.00
1777399331912,1968166,-0.75,-0.47,0.45,1.95,-3.48,-4.09
1777399331912,1968176,-0.75,-0.47,0.44,2.01,-3.36,-3.30
1777399331912,1968186,-0.75,-0.47,0.44,2.01,-3.91,-3.17
1777399331912,1968196,-0.75,-0.46,0.43,1.95,-4.33,-2.93
1777399331912,1968206,-0.75,-0.46,0.43,2.01,-4.09,-3.05
1777399331912,1968216,-0.75,-0.46,0.43,2.38,-2.99,-3.54
1777399331912,1968226,-0.76,-0.46,0.43,2.93,-2.01,-3.48
1777399331913,1968236,-0.77,-0.46,0.44,2.99,-1.16,-3.36
1777399331913,1968246,-0.78,-0.46,0.45,3.17,-0.92,-3.72
1777399331913,1968256,-0.78,-0.46,0.45,3.17,-1.83,-4.27
1777399331913,1968266,-0.77,-0.46,0.45,3.23,-2.38,-4.88
1777399331913,1968276,-0.76,-0.46,0.44,3.17,-2.32,-5.49
1777399331913,1968286,-0.76,-0.46,0.43,2.93,-1.95,-5.98
1777399331913,1968296,-0.76,-0.47,0.43,3.30,-1.59,-6.35
1777399331914,1968306,-0.75,-0.46,0.43,4.39,-1.40,-6.84
1777399331914,1968316,-0.75,-0.46,0.42,5.19,-1.28,-7.39
1777399331914,1968326,-0.75,-0.46,0.43,5.74,-0.92,-7.75
1777399331914,1968336,-0.75,-0.46,0.44,6.41,-0.85,-7.75
1777399331914,1968346,-0.75,-0.45,0.43,6.90,-0.92,-8.12
1777399331914,1968356,-0.75,-0.45,0.44,6.96,-0.85,-8.48
1777399331914,1968376,-0.74,-0.45,0.44,7.14,-0.92,-9.28
1777399331914,1968396,-0.73,-0.45,0.43,8.18,-0.85,-8.36
1777399331915,1968416,-0.74,-0.45,0.44,9.70,-0.18,-8.00
1777399331915,1968436,-0.76,-0.46,0.46,10.68,-1.40,-8.73
1777399331915,1968446,-0.76,-0.45,0.46,11.23,-2.93,-10.07
1777399331915,1968456,-0.74,-0.45,0.45,10.74,-4.58,-10.50
1777399331915,1968466,-0.73,-0.45,0.44,10.44,-4.88,-9.89
1777399331915,1968476,-0.73,-0.45,0.44,10.56,-3.97,-9.09
1777399331915,1968486,-0.73,-0.45,0.45,10.74,-2.56,-8.48
1777399331915,1968496,-0.74,-0.45,0.45,10.50,-2.38,-7.63
1777399331916,1968506,-0.74,-0.45,0.45,10.07,-2.81,-6.90
1777399331916,1968516,-0.74,-0.46,0.46,9.58,-3.23,-6.35
1777399331916,1968526,-0.75,-0.46,0.46,9.52,-3.85,-6.29
1777399331916,1968536,-0.75,-0.45,0.46,8.91,-4.39,-6.77
1777399331916,1968546,-0.74,-0.46,0.45,7.93,-4.76,-6.77
1777399331916,1968556,-0.73,-0.46,0.45,7.57,-4.33,-5.98
1777399331916,1968566,-0.73,-0.46,0.44,7.75,-3.78,-4.94
1777399331917,1968576,-0.73,-0.46,0.45,7.57,-3.30,-3.97
1777399331917,1968586,-0.73,-0.46,0.45,7.26,-3.05,-3.17
1777399331917,1968596,-0.72,-0.46,0.45,6.96,-2.75,-2.44
1777399331917,1968606,-0.73,-0.46,0.45,6.71,-2.50,-1.22
1777399331917,1968616,-0.75,-0.46,0.46,7.02,-2.75,0.18
1777399331917,1968626,-0.77,-0.47,0.47,7.87,-2.93,0.98
1777399331917,1968636,-0.79,-0.46,0.49,8.18,-2.81,0.55
1777399331917,1968646,-0.79,-0.46,0.50,7.26,-3.05,-0.61
1777399331918,1968656,-0.79,-0.46,0.50,5.62,-3.42,-1.16
1777399331918,1968666,-0.79,-0.46,0.49,4.39,-3.30,-0.92
1777399331918,1968676,-0.79,-0.46,0.48,3.66,-1.83,-0.55
1777399331918,1968686,-0.79,-0.46,0.49,3.05,0.18,-0.37
1777399331918,1968696,-0.78,-0.46,0.48,1.89,1.22,-0.98
1777399331918,1968706,-0.77,-0.45,0.47,0.43,1.77,-1.04
1777399331918,1968726,-0.76,-0.46,0.45,0.79,1.89,-0.85
1777399331918,1968746,-0.76,-0.45,0.46,3.23,2.26,-2.20
1777399331919,1968766,-0.78,-0.45,0.47,3.30,2.99,-3.78
1777399331919,1968786,-0.76,-0.44,0.45,1.83,4.52,-5.43
1777399331919,1968796,-0.75,-0.44,0.44,1.04,5.55,-5.98
1777399331919,1968806,-0.75,-0.43,0.43,0.79,7.14,-6.10
1777399331919,1968816,-0.75,-0.44,0.42,1.65,8.30,-5.86
1777399331919,1968826,-0.74,-0.44,0.42,3.11,8.85,-5.86
1777399331919,1968836,-0.74,-0.43,0.43,4.33,8.12,-6.04
1777399331919,1968846,-0.74,-0.44,0.42,5.92,6.47,-6.10
1777399331920,1968856,-0.74,-0.43,0.42,8.12,5.13,-6.23
1777399331920,1968866,-0.75,-0.44,0.43,10.31,3.85,-6.53
1777399331920,1968876,-0.74,-0.43,0.43,11.96,3.11,-7.08
1777399331920,1968886,-0.73,-0.43,0.43,12.70,3.30,-8.06
1777399331920,1968896,-0.74,-0.44,0.44,12.94,4.09,-8.12
1777399331920,1968906,-0.73,-0.43,0.45,13.43,5.13,-7.69
1777399331920,1968916,-0.74,-0.43,0.45,12.94,5.92,-7.20
1777399331920,1968926,-0.76,-0.42,0.45,11.47,6.23,-6.90
1777399331921,1968936,-0.78,-0.43,0.44,10.25,6.59,-6.90
1777399331921,1968946,-0.79,-0.44,0.41,10.68,7.02,-7.08
1777399331921,1968956,-0.80,-0.44,0.40,13.43,8.61,-7.93
1777399331921,1968966,-0.81,-0.44,0.40,16.54,10.68,-10.13
1777399331921,1968976,-0.81,-0.44,0.42,19.47,11.66,-12.76
1777399331921,1968986,-0.81,-0.44,0.43,21.55,10.56,-14.40
1777399331921,1968996,-0.79,-0.45,0.44,22.83,8.18,-15.26
1777399331921,1969006,-0.78,-0.44,0.44,22.71,5.07,-15.44
1777399331922,1969016,-0.77,-0.44,0.45,21.55,2.20,-14.28
1777399331922,1969026,-0.76,-0.45,0.45,20.45,0.55,-12.27
1777399331922,1969036,-0.76,-0.44,0.45,18.86,-0.12,-9.77
1777399331922,1969046,-0.78,-0.43,0.45,16.78,-0.31,-6.65
1777399331922,1969066,-0.80,-0.43,0.44,8.97,7.87,-0.55
1777399331922,1969086,-0.83,-0.44,0.41,3.91,13.79,-1.59
1777399331922,1969106,-0.82,-0.45,0.40,2.75,15.38,-2.87
1777399331922,1969126,-0.79,-0.44,0.37,0.73,13.73,-3.11
1777399331922,1969136,-0.79,-0.44,0.36,0.43,13.24,-2.20
1777399331923,1969146,-0.79,-0.43,0.36,0.92,12.57,-0.98
1777399331923,1969156,-0.79,-0.43,0.35,1.89,12.21,-0.79
1777399331923,1969166,-0.79,-0.43,0.35,2.87,12.45,-1.83
1777399331923,1969176,-0.78,-0.42,0.35,3.78,13.00,-3.72
1777399331923,1969186,-0.77,-0.41,0.35,4.76,13.49,-5.07
1777399331923,1969196,-0.77,-0.40,0.35,5.31,13.79,-5.19
1777399331923,1969206,-0.78,-0.41,0.35,5.00,13.49,-4.94
1777399331923,1969216,-0.78,-0.41,0.35,5.25,12.33,-5.43
1777399331924,1969226,-0.77,-0.41,0.33,5.92,10.56,-6.16
1777399331924,1969236,-0.76,-0.41,0.32,7.14,9.28,-6.41
1777399331924,1969246,-0.76,-0.41,0.31,8.61,8.67,-6.29
1777399331924,1969256,-0.77,-0.42,0.32,10.44,8.54,-6.23
1777399331924,1969266,-0.78,-0.42,0.32,12.33,8.42,-6.47
1777399331924,1969276,-0.79,-0.42,0.34,14.10,8.00,-6.96
1777399331924,1969286,-0.81,-0.42,0.35,15.50,7.57,-7.26
1777399331924,1969296,-0.82,-0.42,0.36,16.05,6.71,-7.69
1777399331925,1969306,-0.83,-0.43,0.36,15.93,5.80,-8.06
1777399331925,1969316,-0.83,-0.43,0.36,15.87,4.82,-8.97
1777399331925,1969326,-0.83,-0.42,0.36,15.87,4.09,-9.58
1777399331925,1969336,-0.84,-0.42,0.36,16.17,4.03,-9.77
1777399331925,1969346,-0.83,-0.42,0.36,16.30,4.27,-9.89
1777399331925,1969356,-0.83,-0.42,0.35,15.99,4.64,-10.25
1777399331925,1969366,-0.83,-0.42,0.35,15.69,5.00,-10.38
1777399331925,1969376,-0.83,-0.41,0.35,15.81,4.64,-10.25
1777399331926,1969386,-0.82,-0.41,0.35,15.99,3.97,-10.31
1777399331926,1969396,-0.82,-0.40,0.34,15.99,2.93,-11.47
1777399331926,1969416,-0.80,-0.40,0.32,15.38,7.02,-13.18
1777399331926,1969436,-0.79,-0.41,0.33,16.85,7.51,-13.55
1777399331926,1969456,-0.79,-0.41,0.32,18.80,0.79,-13.79
1777399331926,1969476,-0.79,-0.42,0.30,20.02,-2.93,-13.49
1777399331926,1969486,-0.80,-0.42,0.30,21.48,-2.69,-13.31
1777399331926,1969496,-0.80,-0.42,0.31,22.95,-1.89,-13.55
1777399331927,1969506,-0.81,-0.43,0.33,23.74,-2.14,-14.28
1777399331927,1969516,-0.81,-0.43,0.34,24.05,-3.48,-15.32
1777399331927,1969526,-0.80,-0.42,0.34,23.32,-5.00,-16.36
1777399331927,1969536,-0.79,-0.41,0.34,21.91,-6.29,-16.60
1777399331927,1969546,-0.79,-0.41,0.33,20.75,-6.47,-15.87
1777399331927,1969556,-0.79,-0.42,0.31,20.14,-5.62,-15.38
1777399331927,1969566,-0.79,-0.42,0.31,19.78,-4.27,-15.75
1777399331927,1969576,-0.80,-0.43,0.32,20.87,-3.23,-15.63
1777399331928,1969586,-0.81,-0.43,0.34,22.22,-3.48,-14.89
1777399331928,1969596,-0.82,-0.44,0.35,23.01,-5.49,-14.59
1777399331928,1969606,-0.83,-0.44,0.37,23.62,-7.63,-15.01
1777399331928,1969616,-0.83,-0.43,0.38,23.80,-9.83,-15.44
1777399331928,1969626,-0.82,-0.42,0.38,22.52,-10.93,-16.48
1777399331928,1969636,-0.80,-0.42,0.37,20.63,-10.50,-17.58
1777399331928,1969646,-0.79,-0.41,0.36,18.92,-8.73,-17.40
1777399331928,1969656,-0.78,-0.41,0.36,17.15,-6.10,-16.85
1777399331928,1969666,-0.78,-0.40,0.36,15.38,-3.97,-16.05
1777399331929,1969676,-0.77,-0.41,0.35,14.28,-2.32,-14.71
1777399331929,1969686,-0.77,-0.42,0.35,13.92,-0.49,-13.37
1777399331929,1969696,-0.79,-0.44,0.36,14.16,-0.12,-12.15
1777399331929,1969706,-0.80,-0.46,0.37,15.56,-2.26,-11.23
1777399331929,1969716,-0.82,-0.46,0.39,18.13,-5.19,-11.35
1777399331929,1969726,-0.83,-0.46,0.40,20.08,-8.00,-12.45
1777399331929,1969736,-0.83,-0.47,0.42,20.94,-9.95,-13.06
1777399331929,1969756,-0.83,-0.44,0.43,17.88,-8.36,-11.41
1777399331930,1969776,-0.85,-0.43,0.45,12.21,-6.71,-7.63
1777399331930,1969796,-0.87,-0.43,0.44,7.20,-6.90,-5.55
1777399331930,1969816,-0.86,-0.40,0.43,4.58,-8.61,-3.78
1777399331930,1969826,-0.86,-0.39,0.42,2.32,-8.48,-2.08
1777399331930,1969836,-0.86,-0.38,0.41,-0.61,-6.96,-0.49
1777399331930,1969846,-0.85,-0.37,0.40,-4.21,-4.82,1.10
1777399331930,1969856,-0.84,-0.36,0.39,-8.54,-2.56,2.44
1777399331930,1969866,-0.82,-0.34,0.36,-13.43,-0.55,4.27
1777399331930,1969876,-0.80,-0.34,0.33,-18.25,1.40,6.77
1777399331931,1969886,-0.78,-0.34,0.30,-21.91,4.09,9.58
1777399331931,1969896,-0.78,-0.34,0.27,-24.23,8.24,12.39
1777399331931,1969906,-0.79,-0.36,0.26,-24.84,12.51,14.77
1777399331931,1969916,-0.80,-0.37,0.25,-23.74,14.22,16.24
1777399331931,1969926,-0.82,-0.38,0.26,-21.00,13.79,16.66
1777399331931,1969936,-0.84,-0.40,0.27,-17.09,11.23,15.93
1777399331931,1969946,-0.85,-0.41,0.28,-13.06,7.20,14.53
1777399331931,1969956,-0.85,-0.40,0.30,-9.40,2.14,12.45
1777399331931,1969966,-0.84,-0.41,0.30,-6.23,-2.26,10.13
1777399331932,1969976,-0.83,-0.40,0.30,-3.97,-4.03,8.85
1777399331932,1969986,-0.82,-0.40,0.30,-2.38,-3.48,8.18
1777399331932,1969996,-0.82,-0.41,0.30,-1.40,-1.95,7.51
1777399331932,1970006,-0.83,-0.41,0.32,0.00,0.79,7.14
1777399331932,1970016,-0.85,-0.42,0.34,1.71,2.93,6.84
1777399331932,1970026,-0.87,-0.42,0.36,3.30,3.48,5.55
1777399331932,1970036,-0.88,-0.42,0.38,4.82,1.89,3.85
1777399331932,1970046,-0.88,-0.42,0.38,6.47,-1.04,1.53
1777399331932,1970056,-0.88,-0.41,0.38,7.75,-3.54,-1.22
1777399331933,1970066,-0.87,-0.41,0.37,8.42,-4.88,-3.85
1777399331933,1970076,-0.85,-0.41,0.37,8.48,-5.37,-6.35
1777399331933,1970086,-0.82,-0.40,0.36,8.42,-4.82,-9.40
1777399331933,1970106,-0.78,-0.39,0.34,6.10,-0.61,-10.19
1777399331933,1970126,-0.75,-0.38,0.31,6.77,1.53,-8.73
1777399331933,1970146,-0.73,-0.37,0.29,8.48,3.48,-6.10
1777399331933,1970166,-0.72,-0.37,0.29,10.80,4.64,-5.98
1777399331933,1970176,-0.72,-0.37,0.30,12.27,4.39,-6.10
1777399331933,1970186,-0.72,-0.36,0.31,13.18,3.97,-6.04
1777399331934,1970196,-0.71,-0.35,0.31,12.70,1.65,-5.92
1777399331934,1970206,-0.70,-0.34,0.29,11.90,-1.46,-6.23
1777399331934,1970216,-0.67,-0.33,0.27,11.47,-3.97,-6.84
1777399331934,1970226,-0.66,-0.30,0.25,11.05,-4.88,-7.45
1777399331935,1970236,-0.63,-0.28,0.22,10.99,-4.70,-7.39
1777399331945,1970246,-0.62,-0.29,0.22,10.19,-4.64,-7.39
1777399331955,1970256,-0.61,-0.24,0.24,8.91,-5.43,-8.91
1777399331965,1970266,-0.62,-0.21,0.24,3.54,-8.54,-12.27
1777399331975,1970276,-0.64,-0.22,0.26,-2.87,-15.08,-15.26
1777399331985,1970286,-0.68,-0.23,0.27,-8.54,-23.62,-18.31
1777399331995,1970296,-0.77,-0.27,0.33,-14.59,-34.61,-29.36
1777399332005,1970306,-0.81,-0.36,0.36,-15.99,-49.01,-38.64
1777399332015,1970316,-0.75,-0.30,0.36,-14.83,-64.94,-53.16
1777399332025,1970326,-0.73,-0.25,0.38,-22.83,-79.04,-69.21
1777399332035,1970336,-0.69,-0.25,0.33,-35.28,-88.99,-76.84
1777399332045,1970346,-0.69,-0.25,0.29,-47.18,-96.25,-83.13
1777399332055,1970356,-0.59,-0.37,0.22,-55.79,-92.83,-88.81
1777399332065,1970366,-0.49,-0.52,0.23,-51.82,-85.45,-95.21
1777399332075,1970376,-0.45,-0.62,0.26,-37.41,-79.96,-93.20
1777399332085,1970386,-0.49,-0.55,0.34,-18.62,-75.87,-88.32
1777399332095,1970396,-0.53,-0.47,0.44,-9.40,-77.64,-85.14
1777399332105,1970406,-0.55,-0.54,0.53,-13.06,-86.12,-83.31
1777399332115,1970416,-0.56,-0.57,0.48,-20.32,-103.52,-79.53
1777399332125,1970426,-0.56,-0.67,0.48,-19.10,-114.62,-76.17
1777399332145,1970446,-0.67,-0.89,0.55,0.98,-91.92,-51.88
1777399332165,1970466,-1.04,-3.01,0.96,17.40,-115.84,-41.75
1777399332189,1970486,-2.46,-4.00,2.00,96.44,-189.51,-46.75
1777399332205,1970506,-1.80,-4.00,3.28,39.98,-274.84,-143.25
1777399332215,1970516,-1.27,-4.00,3.70,-110.47,-235.66,-91.98
1777399332225,1970526,-1.36,-4.00,4.00,-302.98,-116.94,20.57
1777399332235,1970536,-1.48,-4.00,4.00,-515.20,17.82,134.34
1777399332245,1970546,-1.37,-2.60,3.56,-716.13,144.90,219.67
1777399332256,1970556,-1.19,-1.56,3.12,-842.16,258.12,261.72
1777399332266,1970566,-1.05,-1.21,2.71,-867.49,307.37,232.91
1777399332275,1970576,-0.74,-0.69,2.30,-820.80,271.36,157.29
1777399332285,1970586,-0.27,-0.10,1.96,-718.32,195.19,73.30
1777399332295,1970596,0.10,-0.06,2.05,-568.12,123.84,2.38
1777399332305,1970606,0.57,0.24,2.54,-387.82,60.79,-68.54
1777399332315,1970616,0.99,1.18,2.83,-231.38,-13.18,-141.11
1777399332325,1970626,1.74,2.12,2.77,-126.71,-96.86,-167.05
1777399332335,1970636,2.21,2.89,2.62,-60.85,-144.41,-131.29
1777399332345,1970646,2.41,3.44,1.94,-10.13,-132.20,-25.82
1777399332355,1970656,2.08,3.71,0.88,8.85,-44.62,118.53
1777399332365,1970666,1.43,3.56,1.27,-39.86,106.02,233.22
1777399332375,1970676,0.41,3.09,1.55,-62.74,221.13,261.90
1777399332385,1970686,-0.28,2.67,2.05,-34.18,247.62,204.35
1777399332395,1970696,-0.51,2.17,2.27,19.10,162.17,106.02
1777399332405,1970706,-0.52,2.10,1.76,64.88,17.52,16.48
1777399332415,1970716,-0.42,2.19,1.14,82.76,-76.17,-27.10
1777399332425,1970726,-0.37,1.98,0.65,69.15,-85.21,-27.10
1777399332435,1970736,-0.49,1.62,0.38,31.80,-38.88,-11.05
1777399332445,1970746,-0.64,1.19,0.25,-9.52,20.94,4.15
1777399332455,1970756,-0.80,0.88,0.08,-37.90,59.08,11.41
1777399332465,1970766,-0.88,0.58,-0.12,-48.40,73.67,10.99
1777399332475,1970776,-0.91,0.29,-0.38,-38.94,73.43,-22.95
1777399332495,1970796,-0.69,-0.40,-0.69,61.16,41.20,-61.22
1777399332515,1970816,-0.15,-1.08,-0.69,146.61,-9.22,-73.24
1777399332535,1970836,-0.52,-0.99,-0.41,163.27,1.16,-8.97
1777399332555,1970856,-1.07,-1.14,-0.39,104.31,28.44,20.63
1777399332565,1970866,-1.10,-1.34,-0.45,84.17,32.35,2.01
1777399332575,1970876,-0.98,-1.47,-0.47,86.61,25.33,-26.86
1777399332585,1970886,-0.77,-1.51,-0.46,109.86,6.10,-53.47
1777399332595,1970896,-0.53,-1.45,-0.45,142.52,-17.52,-68.60
1777399332605,1970906,-0.38,-1.30,-0.41,171.20,-32.78,-69.03
1777399332615,1970916,-0.41,-1.24,-0.25,184.57,-31.68,-54.26
1777399332625,1970926,-0.54,-1.19,-0.03,183.23,-17.03,-34.55
1777399332635,1970936,-0.75,-1.12,0.17,162.72,-1.59,-20.20
1777399332645,1970946,-0.88,-1.10,0.24,126.53,6.41,-13.12
1777399332655,1970956,-0.86,-1.19,0.19,87.71,11.84,-16.11
1777399332665,1970966,-0.79,-1.08,0.11,59.94,11.78,-24.78
1777399332675,1970976,-0.59,-1.06,0.14,40.65,6.16,-25.45
1777399332685,1970986,-0.45,-1.01,0.04,28.44,-4.82,-24.41
1777399332695,1970996,-0.40,-0.99,-0.06,25.94,-16.36,-24.72
1777399332705,1971006,-0.26,-0.81,-0.16,33.14,-22.64,-26.98
1777399332715,1971016,-0.14,-0.86,-0.15,35.46,-15.99,-26.55
1777399332725,1971026,-0.12,-0.86,-0.08,44.74,-11.23,-34.36
1777399332735,1971036,-0.14,-0.73,-0.10,55.30,-15.14,-39.55
1777399332745,1971046,-0.15,-0.67,-0.01,59.57,-19.10,-36.74
1777399332755,1971056,-0.12,-0.64,-0.03,59.63,-19.04,-30.46
1777399332765,1971066,-0.11,-0.66,-0.00,55.18,-14.53,-25.45
1777399332775,1971076,-0.17,-0.59,0.05,51.03,-9.95,-18.62
1777399332785,1971086,-0.16,-0.60,0.07,43.76,-14.22,-5.00
1777399332795,1971096,-0.16,-0.60,0.01,36.07,-25.45,6.84
1777399332805,1971106,-0.14,-0.63,-0.08,32.84,-35.64,17.76
1777399332815,1971116,-0.11,-0.64,-0.17,37.05,-39.37,24.54
1777399332825,1971126,-0.13,-0.67,-0.20,46.20,-37.72,33.51
1777399332845,1971146,-0.26,-0.81,-0.21,84.84,-31.92,38.15
1777399332865,1971166,-0.56,-0.95,-0.11,98.33,-22.95,46.88
1777399332885,1971186,-0.75,-1.03,0.01,105.77,-18.43,39.31
