host_time_ms,arduino_time_ms,ax,ay,az,gx,gy,gz
1777494843771,287879,-1.0145,-0.0745,0.0043,21.6064,45.7153,-1.2817
1777494843771,287896,-1.0732,-0.0500,0.0302,17.0288,46.9360,-9.3384
1777494843771,287912,-1.0365,-0.0847,-0.0050,6.4087,27.7710,-11.8408
1777494843771,287929,-0.9978,-0.0929,-0.0284,4.8218,17.9443,-10.6812
1777494843771,287946,-0.9369,-0.0890,-0.0597,6.4697,4.8218,-5.5542
1777494843771,287962,-0.9113,-0.0646,-0.0892,11.4136,4.7607,-1.4038
1777494843771,287979,-0.9390,-0.0471,-0.0796,19.5312,14.8926,-2.1973
1777494843771,287995,-0.9410,-0.0394,-0.0697,20.9351,18.0054,-3.4790
1777494843771,288012,-0.9388,-0.0620,-0.0833,15.6250,15.1367,-3.2349
1777494843771,288029,-0.9139,-0.0701,-0.1113,12.9395,9.8267,-1.7090
1777494843771,288045,-0.8760,-0.0923,-0.1342,13.4888,8.8501,0.1221
1777494843771,288062,-0.8828,-0.0961,-0.1345,15.4419,9.6436,2.3193
1777494843772,288078,-0.8884,-0.0951,-0.1326,21.6675,11.8408,2.9297
1777494843772,288095,-0.8982,-0.1041,-0.1042,25.5127,11.2305,3.7231
1777494843772,288112,-0.9243,-0.0895,-0.0745,23.7427,3.7231,4.3335
1777494843772,288128,-0.9301,-0.0995,-0.0651,21.1792,-1.5259,3.5400
1777494843772,288145,-0.9204,-0.0924,-0.0491,20.1416,-10.9253,4.6997
1777494843772,288161,-0.9041,-0.0851,-0.0437,19.4702,-14.8315,5.6763
1777494843772,288178,-0.8663,-0.0936,-0.0549,18.2495,-10.7422,7.4463
1777494843772,288195,-0.8708,-0.0939,-0.0565,19.5312,-6.1646,8.9722
1777494843772,288211,-0.8827,-0.0813,-0.0480,22.5830,1.5259,12.2681
1777494843772,288228,-0.9055,-0.0718,-0.0531,21.4233,1.7090,16.0522
1777494843772,288245,-0.9395,-0.0608,-0.0482,20.2637,-2.0752,17.0288
1777494843772,288261,-0.9441,-0.0552,-0.0533,19.0430,-5.7373,17.7612
1777494843772,288278,-0.9407,-0.0564,-0.0723,17.1509,-10.5591,19.1650
1777494843772,288294,-0.9438,-0.0392,-0.0774,18.8599,-8.2397,22.5220
1777494843772,288311,-0.9600,-0.0391,-0.0864,19.5312,-2.3193,25.1465
1777494843773,288328,-0.9728,-0.0468,-0.0887,20.8740,0.3052,25.2686
1777494843773,288344,-0.9966,-0.0582,-0.0732,24.1699,0.7935,25.2075
1777494843773,288361,-1.0297,-0.0389,-0.0507,24.2920,-7.1411,26.4893
1777494843773,288378,-1.0359,-0.0140,-0.0552,21.5454,-14.8926,26.6724
1777494843773,288394,-1.0248,-0.0087,-0.0682,19.8364,-14.4043,26.4893
1777494843773,288411,-1.0081,-0.0061,-0.1008,19.9585,-3.4180,26.7944
1777494843773,288428,-1.0209,-0.0016,-0.1130,22.8882,9.7656,28.2593
1777494843773,288444,-1.0435,-0.0024,-0.1075,25.5737,16.1133,28.0762
1777494843773,288461,-1.0164,0.0145,-0.1150,26.4893,15.6860,27.2827
1777494843773,288478,-1.0156,0.0128,-0.1177,24.2920,11.5967,21.8506
1777494843773,288494,-0.9808,-0.0299,-0.1334,22.7051,0.7324,22.0947
1777494843773,288511,-0.9595,0.0186,-0.1412,26.6724,-4.0894,26.4282
1777494843773,288528,-0.9786,0.0126,-0.1345,27.5879,-2.5024,26.0010
1777494843774,288544,-1.0083,0.0286,-0.1136,30.4565,-0.1221,24.3530
1777494843774,288561,-1.0304,0.0391,-0.0905,30.5786,-1.3428,21.1792
1777494843774,288577,-1.0112,0.0616,-0.0852,28.8086,-5.3101,17.2729
1777494843774,288594,-1.0037,0.0544,-0.0852,26.9165,-5.6763,16.2354
1777494843774,288611,-0.9989,0.0792,-0.0900,25.6958,-3.9062,17.0898
1777494843774,288627,-1.0048,0.0981,-0.1006,25.8789,2.4414,17.5171
1777494843774,288644,-1.0175,0.1113,-0.1058,27.8320,6.7139,14.4653
1777494843774,288661,-1.0089,0.1079,-0.1133,27.8931,6.3477,12.8174
1777494843774,288677,-0.9808,0.1107,-0.1310,27.3438,4.2114,11.1694
1777494843774,288694,-0.9348,0.1221,-0.1564,27.0996,5.9814,11.7798
1777494843774,288711,-0.9199,0.1415,-0.1683,28.8086,14.2822,14.8926
1777494843774,288727,-0.9329,0.1447,-0.1707,29.5410,18.0054,16.1133
1777494843774,288744,-0.9740,0.1644,-0.1704,30.4565,21.1182,16.3574
1777494843774,288761,-0.9655,0.1628,-0.1818,28.9917,14.6484,13.0615
1777494843774,288778,-0.9222,0.1674,-0.1998,28.4424,7.5073,9.3994
1777494843775,288794,-0.8989,0.1509,-0.2075,28.5645,4.9438,10.6812
1777494843775,288811,-0.9097,0.1473,-0.1891,28.7476,0.1831,12.8174
1777494843775,288828,-0.9170,0.1593,-0.1726,27.9541,-7.0190,14.3433
1777494843775,288844,-0.9103,0.1498,-0.1710,26.1841,-9.7656,14.2822
1777494843775,288861,-0.9113,0.1556,-0.1688,26.1841,-8.9111,14.2212
1777494843775,288877,-0.9333,0.1572,-0.1589,25.5127,-6.6528,14.5874
1777494843775,288894,-0.9780,0.1658,-0.1450,23.7427,-5.9204,15.0146
1777494843775,288911,-0.9941,0.1614,-0.1432,20.8740,-7.3853,12.0850
1777494843775,288928,-0.9896,0.1575,-0.1481,19.5923,-8.3618,11.1084
1777494843775,288944,-0.9742,0.1602,-0.1581,18.1274,-7.0190,9.5215
1777494843775,288961,-0.9562,0.1578,-0.1688,16.4795,-3.0518,9.3994
1777494843775,288977,-0.9681,0.1646,-0.1705,15.6860,0.0610,10.1318
1777494843775,288994,-0.9738,0.1733,-0.1699,15.4419,0.6104,10.3149
1777494843775,289011,-0.9917,0.1880,-0.1696,12.8784,-0.7324,8.7891
1777494843775,289027,-0.9607,0.1820,-0.1920,9.3994,-2.7466,5.6152
1777494843775,289044,-0.9393,0.1813,-0.2028,8.3618,-2.4414,5.3711
1777494843776,289060,-0.8969,0.1787,-0.2042,7.5073,-1.7090,6.4087
1777494843776,289077,-0.9003,0.1884,-0.1908,6.8359,-1.0986,9.8877
1777494843776,289093,-0.9247,0.1947,-0.1818,5.6152,-0.3052,11.1084
1777494843776,289110,-0.9458,0.1975,-0.1724,4.9438,-1.8311,8.7280
1777494843776,289127,-0.9728,0.2065,-0.1570,3.6011,-4.3335,6.5308
1777494843776,289143,-0.9523,0.1918,-0.1692,-0.0610,-9.8877,2.0752
1777494843776,289160,-0.9280,0.2053,-0.1793,-1.1597,-9.4604,1.1597
1777494843776,289176,-0.9297,0.2079,-0.1820,-0.9766,-4.4556,1.7700
1777494843776,289193,-0.9320,0.2219,-0.1807,-0.7935,-3.2349,1.0376
1777494843776,289209,-0.9381,0.1976,-0.1676,-1.4648,-4.9438,-1.7700
1777494843776,289226,-0.9116,0.1804,-0.1642,-3.1738,-12.5122,-3.7842
1777494843776,289243,-0.9019,0.1737,-0.1665,-4.6387,-15.6860,-3.2959
1777494843776,289259,-0.8965,0.1835,-0.1681,-6.4697,-15.0757,-0.9155
1777494843776,289276,-0.9359,0.2042,-0.1603,-7.4463,-7.8735,2.1973
1777494843776,289292,-0.9777,0.2302,-0.1609,-9.3994,-3.4790,2.8076
1777494843777,289309,-0.9824,0.2305,-0.1683,-10.4370,-2.5635,1.6479
1777494843777,289326,-0.9890,0.2422,-0.1724,-9.7046,1.6479,-0.8545
1777494843777,289342,-0.9753,0.2430,-0.1812,-10.7422,4.3945,-3.6621
1777494843777,289359,-0.9327,0.2491,-0.2006,-10.9863,5.9814,-4.8828
1777494843777,289375,-0.9176,0.2546,-0.2074,-10.8643,7.5073,-4.6387
1777494843777,289392,-0.9218,0.2598,-0.2133,-9.7046,10.0708,-3.2349
1777494843777,289409,-0.9215,0.2522,-0.2067,-9.3994,7.2021,-3.6011
1777494843777,289425,-0.9127,0.2334,-0.2092,-8.7280,-1.2817,-5.7983
1777494843777,289442,-0.9110,0.2242,-0.2034,-8.5449,-6.4697,-7.1411
1777494843777,289458,-0.8834,0.2084,-0.2008,-9.2773,-15.5640,-8.0566
1777494843777,289475,-0.8778,0.1949,-0.1949,-10.9253,-16.2964,-4.9438
1777494843777,289492,-0.9180,0.2035,-0.1787,-11.6577,-12.7563,-0.7935
1777494843777,289508,-0.9396,0.2086,-0.1722,-12.1460,-11.4136,0.5493
1777494843777,289525,-0.9690,0.2159,-0.1660,-12.7563,-9.2163,0.4272
1777494843777,289542,-0.9984,0.2316,-0.1510,-11.8408,-7.9346,-1.9531
1777494843778,289558,-1.0105,0.2543,-0.1405,-12.5732,-9.0332,-3.2959
1777494843778,289575,-1.0099,0.2559,-0.1417,-13.7939,-8.7891,-4.2114
1777494843778,289591,-0.9867,0.2576,-0.1577,-15.5640,-5.4321,-6.7749
1777494843778,289608,-0.9596,0.2515,-0.1725,-15.0146,-1.2817,-7.0801
1777494843778,289625,-0.9529,0.2565,-0.1816,-13.5498,0.0610,-6.5918
1777494843778,289641,-0.9486,0.2611,-0.1857,-12.8784,-0.4883,-6.7749
1777494843778,289658,-0.9373,0.2684,-0.1882,-11.2305,-1.5259,-6.9580
1777494843778,289674,-0.9335,0.2745,-0.1915,-11.2915,-2.1362,-7.0801
1777494843778,289691,-0.9265,0.2697,-0.1973,-10.9253,-0.9155,-6.4087
1777494843778,289708,-0.9264,0.2703,-0.1971,-10.0708,0.4883,-5.7373
1777494843778,289724,-0.9374,0.2722,-0.1876,-8.2397,2.0752,-4.3335
1777494843778,289741,-0.9392,0.2655,-0.1864,-7.3242,0.6714,-4.2114
1777494843778,289757,-0.9459,0.2612,-0.1841,-5.4321,-2.1362,-4.7607
1777494843778,289774,-0.9432,0.2704,-0.1744,-4.7607,-2.9907,-5.2490
1777494843778,289791,-0.9437,0.2729,-0.1609,-4.5776,-3.1128,-6.4697
1777494843779,289807,-0.9293,0.2629,-0.1619,-5.7983,-2.9297,-6.8359
1777494843779,289824,-0.9235,0.2596,-0.1631,-5.4321,-1.1597,-5.4321
1777494843779,289840,-0.9128,0.2542,-0.1603,-5.6152,-0.2441,-5.0049
1777494843779,289857,-0.9139,0.2528,-0.1661,-5.8594,0.4272,-3.0518
1777494843779,289874,-0.9282,0.2606,-0.1617,-5.4321,0.5493,-1.7700
1777494843779,289890,-0.9362,0.2661,-0.1591,-5.9814,-0.5493,-1.6479
1777494843779,289907,-0.9493,0.2697,-0.1595,-7.0190,-1.0986,-1.9531
1777494843779,289923,-0.9501,0.2690,-0.1635,-7.5684,-0.9766,-3.4790
1777494843779,289940,-0.9385,0.2627,-0.1754,-7.5073,-0.4272,-4.4556
1777494843779,289956,-0.9335,0.2573,-0.1809,-6.7749,0.0610,-4.6997
1777494843779,289973,-0.9261,0.2581,-0.1858,-4.4556,1.0986,-4.7607
1777494843779,289990,-0.9226,0.2579,-0.1838,-3.3569,-0.1831,-4.5776
1777494843780,290006,-0.9250,0.2659,-0.1735,-2.7466,-2.5635,-4.3945
1777494843780,290023,-0.9208,0.2710,-0.1714,-2.7466,-3.2959,-4.5166
1777494843780,290039,-0.9061,0.2646,-0.1741,-2.4414,-2.8076,-5.3101
1777494843780,290056,-0.9031,0.2695,-0.1669,-2.0142,-3.1128,-4.8828
1777494843780,290072,-0.9017,0.2555,-0.1746,-2.5024,-5.0049,-4.4556
1777494843780,290089,-0.9048,0.2557,-0.1716,-1.9531,-5.7373,-3.6011
1777494843780,290106,-0.9169,0.2703,-0.1687,-1.2817,-5.3711,-1.2817
1777494843780,290122,-0.9330,0.2732,-0.1749,-1.6479,-2.8687,-0.7935
1777494843780,290139,-0.9375,0.2705,-0.1871,-1.3428,-2.2583,-1.0986
1777494843780,290155,-0.9364,0.2682,-0.1896,-1.3428,-2.6855,-0.6714
1777494843780,290172,-0.9364,0.2695,-0.2008,-1.1597,-3.4180,-0.1221
1777494843780,290189,-0.9438,0.2725,-0.2032,0.5493,-2.5635,-0.0610
1777494843780,290205,-0.9504,0.2810,-0.2002,2.5635,-2.9907,-0.5493
1777494843780,290222,-0.9556,0.2772,-0.1995,3.4790,-3.6011,-1.5869
1777494843780,290238,-0.9413,0.2723,-0.1903,5.6152,-5.1880,-3.9062
1777494843781,290255,-0.9230,0.2671,-0.1858,6.4697,-6.2866,-4.3945
1777494843781,290272,-0.9192,0.2667,-0.1829,7.4463,-5.6763,-3.4180
1777494843781,290288,-0.9132,0.2769,-0.1731,7.5684,-4.7607,-2.6855
1777494843781,290305,-0.9143,0.2800,-0.1731,7.5073,-3.4180,-1.8921
1777494843781,290321,-0.9138,0.2788,-0.1713,8.1787,-3.8452,-2.1973
1777494843781,290338,-0.9106,0.2816,-0.1697,10.1318,-5.4321,-2.3193
1777494843781,290354,-0.9092,0.2919,-0.1587,10.6201,-6.1646,-2.6855
1777494843781,290371,-0.9133,0.3031,-0.1558,10.5591,-7.7515,-1.7090
1777494843781,290388,-0.9164,0.3036,-0.1636,10.3149,-7.1411,-1.0376
1777494843781,290404,-0.9197,0.3014,-0.1682,10.9863,-5.6152,-0.8545
1777494843781,290421,-0.9205,0.2992,-0.1808,11.2915,-5.2490,-0.4272
1777494843781,290438,-0.9166,0.3040,-0.2036,12.2070,-4.6997,0.6104
1777494843781,290454,-0.9325,0.3044,-0.2120,14.3433,-3.9062,1.5259
1777494843781,290471,-0.9385,0.3044,-0.2170,15.3198,-5.3711,0.9766
1777494843781,290487,-0.9386,0.2904,-0.2255,16.5405,-6.0425,0.0610
1777494843782,290504,-0.9469,0.2814,-0.2224,18.8599,-6.6528,0.3662
1777494843782,290521,-0.9569,0.2864,-0.2185,20.2637,-5.1880,1.1597
1777494843782,290537,-0.9656,0.2906,-0.2189,21.1182,-3.5400,0.4883
1777494843782,290554,-0.9681,0.2938,-0.2142,22.3389,-2.2583,-0.5493
1777494843782,290570,-0.9403,0.2740,-0.2216,22.6440,-5.1270,-2.9297
1777494843782,290587,-0.9114,0.2562,-0.2172,23.6206,-6.4087,-3.7842
1777494843782,290604,-0.9010,0.2496,-0.2114,24.1089,-7.0801,-3.4180
1777494843782,290620,-0.8810,0.2411,-0.1993,23.3154,-8.4229,-2.3804
1777494843782,290637,-0.8932,0.2374,-0.1880,22.0947,-8.2397,0.3662
1777494843782,290653,-0.9150,0.2405,-0.1792,21.3623,-5.9204,0.6104
1777494843782,290670,-0.9205,0.2385,-0.1771,20.5688,-5.5542,0.4883
1777494843782,290687,-0.9415,0.2407,-0.1757,18.6768,-6.6528,0.7935
1777494843782,290703,-0.9424,0.2410,-0.1799,16.8457,-7.8125,-0.0610
1777494843782,290720,-0.9388,0.2426,-0.1857,15.3809,-6.8359,-0.8545
1777494843782,290737,-0.9359,0.2462,-0.1898,14.7095,-6.0425,-1.0986
1777494843783,290753,-0.9207,0.2340,-0.2056,13.2446,-4.1504,-1.7090
1777494843783,290770,-0.9302,0.2461,-0.2101,12.8784,-3.8452,-0.3662
1777494843783,290786,-0.9486,0.2626,-0.2117,12.3291,-4.6387,-0.1831
1777494843783,290803,-0.9464,0.2654,-0.2133,12.0239,-5.0049,-1.4038
1777494843783,290819,-0.9252,0.2585,-0.2172,11.4746,-5.1880,-3.6011
1777494843783,290836,-0.9062,0.2504,-0.2153,10.2539,-6.0425,-3.1128
1777494843783,290853,-0.9077,0.2506,-0.2089,8.9722,-6.1035,-1.4648
1777494843783,290869,-0.9126,0.2509,-0.2053,8.3618,-5.4321,-1.2817
1777494843783,290886,-0.9283,0.2542,-0.1969,7.3853,-4.2114,-1.4038
1777494843783,290902,-0.9467,0.2677,-0.1898,6.7749,-4.6997,-2.3193
1777494843783,290919,-0.9408,0.2583,-0.1959,4.5776,-5.1270,-4.9438
1777494843783,290936,-0.9164,0.2504,-0.1990,3.9673,-5.1270,-5.4932
1777494843783,290952,-0.9071,0.2506,-0.1962,3.3569,-5.5542,-4.6387
1777494843783,290969,-0.8920,0.2466,-0.1918,1.7090,-6.4697,-3.9673
1777494843783,290985,-0.8892,0.2443,-0.1921,-0.1221,-6.1035,-2.6855
1777494843784,291002,-0.9081,0.2493,-0.1854,-0.3052,-5.3711,-1.6479
1777494843784,291018,-0.9366,0.2644,-0.1730,-1.2207,-4.4556,-2.1973
1777494843784,291035,-0.9425,0.2651,-0.1801,-3.2959,-5.0659,-4.0283
1777494843784,291052,-0.9366,0.2609,-0.1852,-3.9673,-4.6997,-4.9438
1777494843784,291068,-0.9225,0.2576,-0.1910,-3.9062,-4.6997,-5.4321
1777494843784,291085,-0.9088,0.2515,-0.1969,-4.4556,-6.2256,-5.0049
1777494843784,291101,-0.9119,0.2598,-0.1934,-4.5776,-6.4087,-4.0283
1777494843784,291118,-0.9205,0.2644,-0.1870,-4.7607,-5.7373,-3.8452
1777494843784,291135,-0.9410,0.2786,-0.1835,-5.6152,-5.5542,-4.1504
1777494843784,291151,-0.9353,0.2755,-0.1880,-6.8970,-5.3101,-6.1646
1777494843784,291168,-0.9243,0.2672,-0.1921,-7.5684,-5.6152,-5.7373
1777494843784,291184,-0.9233,0.2676,-0.1943,-7.5073,-5.6763,-5.3711
1777494843784,291201,-0.9144,0.2631,-0.1951,-8.0566,-5.7983,-5.4932
1777494843784,291218,-0.9130,0.2654,-0.1969,-8.3008,-5.6152,-4.8218
1777494843784,291234,-0.9214,0.2648,-0.1938,-7.5684,-4.7607,-5.6152
1777494843784,291251,-0.9269,0.2640,-0.1881,-7.5684,-5.0049,-6.0425
1777494843784,291267,-0.9286,0.2695,-0.1896,-7.5073,-6.4697,-6.1035
1777494843785,291284,-0.9175,0.2657,-0.1871,-7.2021,-6.6528,-7.5684
1777494843785,291300,-0.9053,0.2574,-0.1863,-7.1411,-7.6904,-7.6294
1777494843785,291317,-0.9071,0.2579,-0.1812,-6.8970,-8.5449,-6.9580
1777494843785,291334,-0.9178,0.2599,-0.1686,-7.0190,-10.1929,-5.7983
1777494843785,291350,-0.9340,0.2600,-0.1621,-7.5684,-10.1318,-5.9204
1777494843785,291367,-0.9432,0.2721,-0.1587,-8.2397,-10.1929,-4.9438
1777494843785,291384,-0.9481,0.2800,-0.1567,-8.6060,-8.7891,-5.0049
1777494843785,291400,-0.9491,0.2877,-0.1635,-10.2539,-5.2490,-5.2490
1777494843785,291417,-0.9551,0.2911,-0.1805,-10.8032,-3.8452,-4.6997
1777494843785,291433,-0.9419,0.2881,-0.1975,-10.5591,-4.0894,-4.9438
1777494843785,291450,-0.9379,0.2885,-0.2072,-10.1929,-4.3335,-4.3335
1777494843785,291467,-0.9457,0.3004,-0.2140,-7.7515,-3.5400,-3.3569
1777494843785,291483,-0.9551,0.3125,-0.2184,-5.6152,-1.7700,-4.3335
1777494843785,291500,-0.9508,0.2833,-0.2184,-3.0518,-1.3428,-5.9204
1777494843785,291516,-0.9344,0.3015,-0.2122,-1.7090,-2.0142,-6.1646
1777494843786,291533,-0.9186,0.2893,-0.1996,0.0610,-4.5166,-6.5918
1777494843786,291549,-0.8982,0.2767,-0.1938,1.4648,-6.9580,-5.9814
1777494843789,299180,-0.9755,0.2809,-0.1519,-11.5356,-9.3994,-6.5918
1777494843806,299196,-1.0236,0.3231,-0.1677,-14.5874,-9.4604,-9.7656
1777494843823,299213,-1.0208,0.3265,-0.1959,-16.6626,-10.3149,-16.7847
1777494843840,299230,-0.9974,0.3160,-0.2058,-15.3809,-10.9253,-22.4609
1777494843866,299246,-0.9374,0.3448,-0.1899,-15.9302,-12.2681,-23.8647
1777494843874,299263,-0.9075,0.3628,-0.1952,-18.1274,-16.9067,-23.6816
1777494843891,299280,-0.8698,0.4572,-0.1530,-20.3857,-26.1841,-28.0151
1777494843910,299297,-0.7834,0.5397,-0.1787,-44.1895,-57.1289,-33.3252
1777494843925,299313,-0.6582,0.6311,-0.2288,-55.4810,-80.6885,-32.8369
1777494843942,299330,-0.4396,0.7343,-0.2786,-76.9653,-124.3896,-35.5835
1777494843959,299347,-0.1394,0.8640,-0.3354,-88.7451,-170.1660,-40.0391
1777494843976,299363,0.1667,0.9147,-0.4216,-80.8105,-204.1016,-33.3862
1777494843995,299380,0.2600,0.9095,-0.4373,-62.5610,-212.4634,-24.2920
1777494844011,299397,0.3214,0.8685,-0.3701,-6.5918,-219.9707,-6.7139
1777494844030,299413,0.2798,0.8145,-0.1399,55.8472,-220.1538,-3.1738
1777494844044,299430,0.2129,0.7286,0.1536,98.8159,-210.8154,-6.5308
1777494844061,299447,0.1923,0.6421,0.2937,106.6284,-204.2236,-9.6436
1777494844088,299464,0.3190,0.3983,0.4037,97.1069,-201.1719,-9.3994
1777494844095,299480,0.2856,0.0798,0.4351,112.3657,-161.3159,5.2490
1777494844113,299497,-0.1327,-0.2858,0.8367,156.3110,-122.4365,18.9209
1777494844130,299514,-0.5853,-0.5687,1.2629,159.7900,-137.3291,23.5596
1777494844147,299530,-1.2751,-1.5897,2.0237,101.0742,-239.3188,-18.6768
1777494844173,299547,-2.2526,-3.9984,2.4207,13.4277,-304.0771,-82.8247
1777494844181,299564,-3.9995,-3.9995,3.9995,38.2080,-321.7773,-193.4814
1777494844198,299581,-3.9995,-3.9995,3.9995,80.1392,-348.9990,-286.1938
1777494844215,299597,-3.2317,-3.9995,3.9995,-180.5420,-435.3638,-418.8232
1777494844233,299614,-0.3188,-3.9149,3.9995,-738.9526,-142.5171,-59.1431
1777494844250,299631,-3.2378,0.0820,3.9995,-988.4644,265.7471,200.2563
1777494844267,299648,-3.9940,1.4626,3.9995,-1036.7432,272.0337,-51.4526
1777494844284,299665,-3.5226,3.9797,3.9995,-1010.1929,248.4741,-153.2593
1777494844313,299681,-2.4602,3.9976,3.9995,-942.5049,302.9175,-229.3091
1777494844318,299698,-0.7208,3.9976,3.9995,-837.2192,236.2061,-295.7764
1777494844335,299715,0.7521,3.9976,3.9995,-714.9658,30.0903,-332.6416
1777494844352,299732,2.3679,3.9976,2.7101,-626.5869,-16.1743,-228.6987
1777494844369,299748,1.3479,3.8787,1.6696,-418.6401,64.9414,-54.4434
1777494844386,299765,0.6495,2.8048,0.8345,-247.8027,8.5449,-32.4707
1777494844403,299782,0.3483,2.0240,0.3728,-137.1460,-26.6724,-25.6958
1777494844420,299798,-0.0865,1.7242,0.1501,-95.3369,-29.6021,-24.1699
1777494844441,299815,-0.4790,1.2352,-0.1093,-31.1890,-21.0571,-23.8037
1777494844455,299832,-0.4374,0.5996,-0.5034,0.3662,-14.2212,-34.0576
1777494844472,299849,-0.1986,0.1102,-0.7836,41.9922,-15.8691,-54.9927
1777494844489,299866,-0.0393,-0.0355,-0.9031,60.9741,-21.4844,-66.8945
1777494844507,299882,0.2914,-0.3844,-1.2040,78.3691,-38.8794,-67.2607
1777494844533,299899,0.2888,-0.7156,-1.1914,82.2144,-53.2227,-35.9497
1777494844542,299916,0.1390,-0.9050,-1.1517,59.4482,-67.1997,6.2866
1777494844557,299932,-0.0415,-0.9220,-1.0610,56.7017,-61.5234,29.3579
1777494844574,299949,-0.4071,-0.8900,-0.8065,60.0586,-52.0630,56.2744
1777494844591,299966,-0.5513,-0.8364,-0.6265,63.7207,-49.7437,58.4717
1777494844608,299982,-0.5533,-0.7024,-0.4274,67.0166,-50.9033,50.6592
1777494844625,299999,-0.5037,-0.6268,-0.3632,58.7158,-55.7861,47.1191
1777494844642,300016,-0.3806,-0.5576,-0.3995,34.7900,-54.5044,50.5371
1777494844659,300032,-0.2465,-0.4637,-0.5128,28.0151,-41.9922,63.9038
1777494844676,300049,-0.2566,-0.3473,-0.5374,43.0298,-26.7334,78.9795
1777494844693,300066,-0.2877,-0.3225,-0.5261,53.7720,-24.5361,79.8340
1777494844710,300082,-0.3292,-0.2950,-0.4667,71.5332,-42.0532,65.8569
1777494844728,300099,-0.1924,-0.3112,-0.3179,81.9092,-74.8901,43.0908
1777494844756,300116,-0.2250,-0.2999,-0.2079,79.4067,-80.9326,49.1943
1777494844762,300133,-0.2612,-0.3167,-0.2162,77.6978,-81.4819,55.4810
1777494844779,300149,-0.4541,-0.3717,-0.2046,86.0596,-69.2749,67.7490
