host_time_ms,arduino_time_ms,ax,ay,az,gx,gy,gz
1777399366356,1997286,-0.51,-1.14,0.36,90.03,-53.65,-42.66
1777399366357,1997296,-0.45,-1.13,0.33,75.81,-58.59,-37.78
1777399366357,1997306,-0.44,-1.15,0.27,63.90,-55.79,-24.66
1777399366357,1997316,-0.49,-1.15,0.25,57.01,-42.79,-8.85
1777399366358,1997326,-0.59,-1.17,0.26,52.06,-23.19,4.09
1777399366358,1997336,-0.68,-1.19,0.31,49.87,-5.31,9.89
1777399366358,1997346,-0.72,-1.16,0.36,49.74,3.66,9.95
1777399366358,1997356,-0.75,-1.13,0.40,47.85,5.74,7.87
1777399366358,1997366,-0.77,-1.11,0.44,41.93,3.36,3.11
1777399366359,1997386,-0.64,-1.09,0.37,21.55,-32.29,-19.04
1777399366359,1997406,-0.49,-0.96,0.26,19.41,-31.92,-10.93
1777399366359,1997426,-0.60,-0.92,0.26,19.78,-6.65,-0.12
1777399366359,1997446,-0.66,-0.89,0.29,18.98,12.33,2.20
1777399366360,1997456,-0.69,-0.88,0.33,17.33,16.11,-0.43
1777399366360,1997466,-0.69,-0.88,0.36,14.10,12.88,-5.43
1777399366360,1997476,-0.66,-0.87,0.35,10.44,2.75,-12.70
1777399366360,1997486,-0.59,-0.86,0.32,7.63,-8.91,-19.41
1777399366361,1997496,-0.52,-0.84,0.29,6.29,-16.85,-22.71
1777399366361,1997506,-0.46,-0.83,0.27,6.59,-18.98,-22.34
1777399366362,1997516,-0.42,-0.83,0.28,9.16,-15.38,-19.65
1777399366362,1997526,-0.41,-0.82,0.29,12.51,-8.61,-15.32
1777399366362,1997536,-0.43,-0.83,0.32,15.26,-1.34,-11.11
1777399366363,1997546,-0.45,-0.83,0.37,17.40,5.25,-9.03
1777399366363,1997556,-0.47,-0.83,0.42,16.97,7.51,-8.30
1777399366363,1997566,-0.48,-0.84,0.44,14.34,3.48,-8.18
1777399366363,1997576,-0.48,-0.82,0.46,10.86,-2.75,-9.77
1777399366363,1997586,-0.47,-0.81,0.45,5.92,-10.13,-11.60
1777399366364,1997596,-0.45,-0.80,0.41,1.16,-16.72,-12.39
1777399366364,1997606,-0.43,-0.80,0.38,-2.08,-19.71,-12.21
1777399366364,1997616,-0.42,-0.78,0.35,-2.81,-19.41,-11.29
1777399366364,1997626,-0.42,-0.77,0.33,-2.14,-15.14,-9.09
1777399366365,1997636,-0.43,-0.76,0.34,-1.46,-8.73,-5.55
1777399366365,1997646,-0.45,-0.76,0.35,-2.01,-4.52,-1.77
1777399366365,1997656,-0.48,-0.76,0.34,-3.17,-2.69,0.73
1777399366366,1997666,-0.48,-0.76,0.33,-3.36,-1.10,1.65
1777399366366,1997676,-0.48,-0.76,0.32,-3.05,1.40,1.89
1777399366366,1997686,-0.49,-0.77,0.33,-2.75,2.38,1.71
1777399366366,1997696,-0.49,-0.78,0.34,-1.89,1.22,0.18
1777399366366,1997706,-0.50,-0.78,0.35,-1.83,-2.26,-2.32
1777399366367,1997716,-0.48,-0.77,0.35,-2.75,-8.18,-5.92
1777399366367,1997736,-0.44,-0.74,0.28,-7.75,-16.78,-0.12
1777399366367,1997756,-0.48,-0.72,0.23,-11.17,-6.77,10.62
1777399366367,1997776,-0.55,-0.76,0.25,-9.03,7.93,18.55
1777399366368,1997796,-0.60,-0.76,0.34,-5.55,9.77,13.12
1777399366368,1997806,-0.60,-0.75,0.35,-7.20,2.32,8.73
1777399366368,1997816,-0.59,-0.74,0.33,-10.13,-6.29,5.13
1777399366368,1997826,-0.57,-0.74,0.30,-12.63,-13.43,3.36
1777399366369,1997836,-0.56,-0.73,0.26,-13.67,-17.82,2.75
1777399366369,1997846,-0.54,-0.72,0.23,-13.55,-19.23,3.30
1777399366369,1997856,-0.52,-0.70,0.21,-12.27,-17.52,5.80
1777399366369,1997866,-0.52,-0.70,0.18,-10.31,-12.02,9.58
1777399366369,1997876,-0.53,-0.71,0.20,-7.39,-3.17,13.43
1777399366370,1997886,-0.56,-0.71,0.24,-4.21,4.76,15.20
1777399366370,1997896,-0.59,-0.73,0.29,-2.38,8.06,14.65
1777399366370,1997906,-0.61,-0.74,0.32,-2.44,5.55,11.78
1777399366370,1997916,-0.61,-0.75,0.34,-3.60,-2.87,6.84
1777399366371,1997926,-0.61,-0.76,0.32,-3.78,-14.40,1.40
1777399366371,1997936,-0.60,-0.76,0.31,-2.01,-25.82,-4.58
1777399366371,1997946,-0.58,-0.74,0.30,0.67,-34.73,-9.83
1777399366371,1997956,-0.56,-0.73,0.27,2.99,-39.12,-12.21
1777399366371,1997966,-0.55,-0.73,0.27,5.37,-36.99,-11.72
1777399366372,1997976,-0.55,-0.72,0.28,7.14,-30.58,-9.64
1777399366372,1997986,-0.56,-0.73,0.29,8.61,-23.13,-6.41
1777399366372,1997996,-0.57,-0.75,0.31,10.01,-17.03,-3.91
1777399366372,1998006,-0.57,-0.76,0.33,11.60,-13.12,-3.36
1777399366372,1998016,-0.59,-0.77,0.38,12.39,-10.80,-4.52
1777399366373,1998026,-0.59,-0.78,0.42,10.99,-12.82,-7.75
1777399366373,1998036,-0.58,-0.79,0.42,8.73,-19.78,-11.54
1777399366373,1998046,-0.56,-0.80,0.41,8.36,-27.28,-14.83
1777399366373,1998056,-0.54,-0.80,0.41,9.89,-31.86,-17.21
1777399366374,1998066,-0.52,-0.79,0.42,11.66,-17.52,-16.17
1777399366374,1998086,-0.51,-0.77,0.44,10.62,-20.81,-9.95
1777399366374,1998106,-0.56,-0.79,0.50,5.62,-13.61,-6.41
1777399366374,1998126,-0.56,-0.82,0.50,0.24,-14.71,-7.14
1777399366374,1998136,-0.55,-0.82,0.49,-1.04,-15.63,-9.28
1777399366375,1998146,-0.52,-0.81,0.48,-1.89,-16.17,-11.05
1777399366375,1998156,-0.51,-0.79,0.46,-2.87,-16.17,-11.29
1777399366375,1998166,-0.49,-0.79,0.44,-3.66,-14.59,-10.19
1777399366375,1998176,-0.48,-0.77,0.44,-3.42,-11.29,-8.42
1777399366375,1998186,-0.48,-0.77,0.44,-3.36,-8.00,-5.80
1777399366376,1998196,-0.48,-0.76,0.45,-3.23,-6.41,-2.99
1777399366376,1998206,-0.48,-0.75,0.44,-2.87,-5.19,-0.79
1777399366376,1998216,-0.49,-0.75,0.44,-3.11,-4.03,1.04
1777399366376,1998226,-0.50,-0.76,0.44,-3.17,-3.30,1.71
1777399366376,1998236,-0.52,-0.76,0.46,-2.69,-3.66,0.31
1777399366377,1998246,-0.51,-0.77,0.44,-2.93,-7.32,-2.20
1777399366377,1998256,-0.49,-0.77,0.43,-2.38,-12.02,-3.97
1777399366377,1998266,-0.48,-0.77,0.41,-0.98,-15.50,-4.46
1777399366377,1998276,-0.48,-0.76,0.40,0.12,-16.85,-3.97
1777399366377,1998286,-0.47,-0.76,0.40,1.10,-16.97,-2.87
1777399366378,1998296,-0.46,-0.75,0.41,1.71,-16.72,-1.95
1777399366378,1998306,-0.47,-0.75,0.42,0.92,-17.09,-0.55
1777399366378,1998316,-0.47,-0.75,0.42,-0.12,-18.13,1.04
1777399366378,1998326,-0.46,-0.75,0.41,-1.28,-18.86,2.26
1777399366378,1998336,-0.45,-0.76,0.41,-1.71,-18.92,4.09
1777399366378,1998346,-0.45,-0.75,0.41,-1.71,-18.68,6.84
1777399366379,1998356,-0.46,-0.75,0.42,-2.93,-18.31,9.03
1777399366379,1998366,-0.48,-0.75,0.42,-4.70,-18.62,10.56
1777399366379,1998376,-0.48,-0.75,0.42,-6.84,-19.96,11.96
1777399366379,1998386,-0.48,-0.74,0.40,-9.16,-21.12,13.61
1777399366379,1998396,-0.49,-0.74,0.39,-11.66,-21.18,15.32
1777399366379,1998406,-0.50,-0.75,0.37,-12.88,-20.63,18.01
1777399366380,1998426,-0.51,-0.75,0.37,-10.13,-14.71,19.96
1777399366380,1998446,-0.53,-0.75,0.42,-11.84,-14.71,21.73
1777399366380,1998466,-0.54,-0.76,0.40,-13.73,-18.43,21.00
1777399366380,1998486,-0.54,-0.75,0.40,-11.90,-21.91,18.25
1777399366380,1998496,-0.53,-0.75,0.41,-10.50,-23.38,16.97
1777399366381,1998506,-0.53,-0.75,0.41,-9.70,-24.66,15.69
1777399366381,1998516,-0.51,-0.75,0.41,-9.40,-25.21,15.50
1777399366381,1998526,-0.51,-0.74,0.41,-9.34,-24.96,16.97
1777399366381,1998536,-0.51,-0.74,0.42,-9.70,-24.05,18.92
1777399366381,1998546,-0.52,-0.73,0.43,-11.23,-23.44,20.57
1777399366382,1998556,-0.53,-0.73,0.43,-13.37,-22.52,21.48
1777399366382,1998566,-0.53,-0.73,0.43,-15.14,-21.42,22.09
1777399366382,1998576,-0.54,-0.73,0.44,-16.85,-21.06,22.95
1777399366382,1998586,-0.54,-0.72,0.43,-18.49,-21.55,23.32
1777399366382,1998596,-0.54,-0.72,0.42,-20.14,-22.46,23.38
1777399366382,1998606,-0.54,-0.72,0.41,-20.87,-23.32,23.50
1777399366383,1998616,-0.55,-0.72,0.41,-20.69,-24.11,23.07
1777399366383,1998626,-0.55,-0.72,0.41,-20.08,-25.09,22.83
1777399366383,1998636,-0.56,-0.71,0.41,-19.17,-26.79,22.34
1777399366383,1998646,-0.56,-0.69,0.41,-18.92,-27.77,21.55
1777399366383,1998656,-0.55,-0.68,0.40,-19.29,-28.02,21.36
1777399366384,1998666,-0.55,-0.68,0.41,-19.35,-27.22,22.16
1777399366384,1998676,-0.55,-0.68,0.41,-19.65,-26.31,23.50
1777399366384,1998686,-0.55,-0.68,0.41,-20.57,-25.09,25.15
1777399366384,1998696,-0.55,-0.68,0.41,-21.36,-24.41,26.86
1777399366384,1998706,-0.55,-0.68,0.40,-21.30,-24.17,28.20
1777399366385,1998716,-0.57,-0.67,0.39,-21.30,-23.62,28.99
1777399366385,1998726,-0.59,-0.68,0.39,-20.94,-22.34,29.79
1777399366385,1998736,-0.61,-0.68,0.40,-19.35,-21.18,29.79
1777399366385,1998746,-0.64,-0.68,0.43,-17.70,-20.75,28.93
1777399366385,1998756,-0.65,-0.68,0.44,-16.48,-22.28,24.66
1777399366385,1998776,-0.64,-0.67,0.43,-18.07,-28.32,22.52
1777399366386,1998796,-0.63,-0.64,0.41,-17.64,-23.74,24.72
1777399366386,1998816,-0.65,-0.61,0.39,-19.10,-14.47,27.22
1777399366386,1998836,-0.67,-0.60,0.39,-18.01,-5.13,28.26
1777399366386,1998846,-0.67,-0.60,0.39,-17.70,-2.14,28.81
1777399366386,1998856,-0.69,-0.61,0.40,-18.74,-0.12,28.44
1777399366386,1998866,-0.69,-0.61,0.40,-19.71,-1.10,26.55
1777399366387,1998876,-0.69,-0.61,0.39,-20.57,-3.97,23.86
1777399366387,1998886,-0.68,-0.61,0.37,-20.94,-7.45,20.81
1777399366387,1998896,-0.66,-0.60,0.35,-20.45,-10.25,18.80
1777399366387,1998906,-0.64,-0.59,0.33,-19.29,-11.96,17.82
1777399366387,1998916,-0.63,-0.57,0.31,-18.07,-12.51,17.33
1777399366388,1998926,-0.63,-0.57,0.30,-16.05,-11.60,17.82
1777399366388,1998936,-0.64,-0.58,0.30,-13.00,-9.34,18.43
1777399366388,1998946,-0.65,-0.57,0.32,-8.97,-6.35,18.25
1777399366388,1998956,-0.67,-0.57,0.33,-6.23,-3.60,17.94
1777399366388,1998966,-0.67,-0.57,0.34,-4.64,-2.69,17.15
1777399366388,1998976,-0.67,-0.57,0.35,-3.36,-2.93,16.36
1777399366389,1998986,-0.66,-0.58,0.35,-2.87,-4.58,15.44
1777399366389,1998996,-0.65,-0.56,0.35,-3.60,-7.45,13.49
1777399366389,1999006,-0.62,-0.56,0.33,-5.00,-11.47,12.51
1777399366389,1999016,-0.62,-0.54,0.32,-5.92,-14.89,13.31
1777399366389,1999026,-0.61,-0.55,0.31,-6.29,-17.03,15.63
1777399366389,1999036,-0.62,-0.53,0.29,-6.90,-17.88,17.09
1777399366389,1999046,-0.63,-0.54,0.28,-7.14,-17.21,18.86
1777399366390,1999056,-0.65,-0.54,0.28,-6.65,-15.14,21.06
1777399366390,1999066,-0.66,-0.54,0.28,-5.98,-13.31,22.83
1777399366390,1999076,-0.68,-0.55,0.28,-5.43,-12.21,22.40
1777399366390,1999086,-0.69,-0.56,0.28,-3.97,-11.47,20.87
1777399366390,1999096,-0.71,-0.57,0.30,-2.99,-12.39,19.53
1777399366390,1999116,-0.74,-0.59,0.32,1.59,-21.18,13.00
1777399366391,1999136,-0.75,-0.57,0.34,4.15,-25.33,8.00
1777399366391,1999156,-0.74,-0.56,0.34,5.86,-23.44,6.23
1777399366391,1999176,-0.73,-0.56,0.32,4.76,-18.86,7.81
1777399366391,1999186,-0.74,-0.57,0.32,3.91,-16.24,8.91
1777399366391,1999196,-0.74,-0.58,0.32,4.58,-13.61,9.58
1777399366391,1999206,-0.74,-0.58,0.33,6.96,-11.47,9.70
1777399366391,1999216,-0.75,-0.59,0.35,9.09,-9.52,8.97
1777399366392,1999226,-0.76,-0.59,0.38,10.38,-8.54,7.51
1777399366392,1999236,-0.76,-0.59,0.40,10.56,-9.70,5.49
1777399366392,1999246,-0.76,-0.58,0.42,9.89,-12.82,3.11
1777399366392,1999256,-0.75,-0.57,0.43,8.79,-16.91,0.43
1777399366392,1999266,-0.73,-0.56,0.42,6.65,-21.00,-2.26
1777399366392,1999276,-0.71,-0.56,0.41,4.09,-24.11,-3.85
1777399366392,1999286,-0.69,-0.55,0.38,2.44,-25.94,-4.21
1777399366393,1999296,-0.66,-0.54,0.36,1.95,-24.72,-3.17
1777399366393,1999306,-0.65,-0.54,0.35,2.44,-20.87,0.00
1777399366393,1999316,-0.64,-0.54,0.36,3.91,-16.42,4.15
1777399366393,1999326,-0.64,-0.55,0.36,5.80,-12.88,8.48
1777399366393,1999336,-0.63,-0.55,0.36,8.06,-10.07,12.63
1777399366393,1999346,-0.63,-0.54,0.36,10.50,-7.51,16.30
1777399366394,1999356,-0.65,-0.53,0.38,12.70,-4.76,18.86
1777399366394,1999366,-0.67,-0.52,0.43,12.76,-2.99,19.59
1777399366394,1999376,-0.70,-0.51,0.47,9.09,-4.46,17.58
1777399366394,1999386,-0.70,-0.51,0.47,3.11,-8.97,14.40
1777399366394,1999396,-0.70,-0.51,0.46,-2.99,-14.77,11.41
1777399366394,1999406,-0.70,-0.53,0.43,-6.84,-20.39,9.64
1777399366394,1999416,-0.68,-0.54,0.40,-7.81,-24.84,8.61
1777399366395,1999426,-0.67,-0.54,0.38,-5.92,-27.04,8.42
1777399366395,1999436,-0.68,-0.55,0.39,-2.50,-27.40,8.97
1777399366395,1999446,-0.68,-0.55,0.40,0.61,-27.77,8.97
1777399366395,1999466,-0.66,-0.61,0.43,10.13,-38.15,6.77
1777399366395,1999486,-0.75,-0.55,0.55,7.93,-44.43,-1.83
1777399366395,1999506,-0.73,-0.53,0.55,2.44,-42.91,-2.75
1777399366395,1999526,-0.72,-0.51,0.53,-1.89,-35.16,3.30
1777399366396,1999536,-0.73,-0.52,0.54,-3.78,-29.79,5.92
1777399366396,1999546,-0.73,-0.50,0.53,-5.13,-24.66,7.81
1777399366396,1999556,-0.73,-0.49,0.52,-6.90,-20.69,9.46
1777399366396,1999566,-0.74,-0.49,0.51,-8.97,-18.31,10.62
1777399366396,1999576,-0.74,-0.50,0.50,-10.25,-16.54,10.50
1777399366396,1999586,-0.75,-0.50,0.50,-10.93,-15.20,8.79
1777399366396,1999596,-0.74,-0.49,0.49,-10.50,-15.32,7.08
1777399366397,1999606,-0.73,-0.49,0.49,-10.19,-16.42,5.86
1777399366397,1999616,-0.72,-0.50,0.48,-10.01,-18.49,5.31
1777399366397,1999626,-0.71,-0.49,0.47,-9.28,-19.96,5.07
1777399366397,1999636,-0.70,-0.49,0.46,-8.48,-20.08,5.00
1777399366397,1999646,-0.69,-0.49,0.47,-7.93,-19.29,5.13
1777399366397,1999656,-0.70,-0.49,0.47,-7.02,-18.37,6.29
1777399366397,1999666,-0.70,-0.49,0.48,-5.98,-17.64,7.69
1777399366398,1999676,-0.72,-0.49,0.50,-5.07,-17.15,8.24
1777399366398,1999686,-0.73,-0.49,0.52,-3.91,-17.21,8.12
1777399366398,1999696,-0.74,-0.49,0.53,-3.11,-17.88,7.93
1777399366398,1999706,-0.74,-0.50,0.53,-3.78,-19.04,7.26
1777399366398,1999716,-0.73,-0.49,0.52,-4.70,-18.98,5.98
1777399366398,1999726,-0.72,-0.49,0.52,-5.49,-17.27,4.64
1777399366399,1999736,-0.71,-0.48,0.52,-7.02,-15.87,3.85
1777399366399,1999746,-0.71,-0.50,0.51,-8.18,-15.20,4.21
1777399366399,1999756,-0.70,-0.49,0.50,-8.24,-13.92,3.91
1777399366399,1999766,-0.69,-0.49,0.50,-7.87,-12.76,3.97
1777399366399,1999776,-0.69,-0.49,0.50,-8.18,-11.60,4.52
1777399366399,1999786,-0.70,-0.50,0.51,-8.12,-11.47,5.13
1777399366399,1999806,-0.70,-0.50,0.51,-7.87,-13.61,4.33
1777399366400,1999826,-0.70,-0.49,0.50,-10.07,-14.47,1.34
1777399366400,1999846,-0.67,-0.48,0.48,-11.17,-13.73,1.95
1777399366400,1999866,-0.68,-0.48,0.49,-10.07,-10.80,4.39
1777399366400,1999876,-0.70,-0.47,0.50,-9.28,-9.77,4.76
1777399366400,1999886,-0.70,-0.47,0.50,-9.03,-9.64,5.07
1777399366400,1999896,-0.70,-0.48,0.50,-9.34,-10.44,4.70
1777399366400,1999906,-0.70,-0.47,0.49,-9.52,-11.35,4.09
1777399366400,1999916,-0.69,-0.47,0.49,-9.70,-12.33,3.78
1777399366401,1999926,-0.69,-0.47,0.48,-10.19,-13.37,3.72
1777399366401,1999936,-0.69,-0.48,0.47,-10.25,-14.40,4.15
1777399366401,1999946,-0.68,-0.48,0.46,-10.01,-15.56,3.85
1777399366401,1999956,-0.69,-0.49,0.46,-9.16,-15.69,3.42
1777399366401,1999966,-0.70,-0.49,0.48,-7.39,-14.77,3.42
1777399366401,1999976,-0.71,-0.50,0.50,-6.59,-14.53,3.11
1777399366401,1999986,-0.72,-0.50,0.51,-6.71,-15.20,2.69
1777399366402,1999996,-0.72,-0.50,0.51,-6.65,-16.24,2.62
1777399366402,2000006,-0.72,-0.51,0.52,-6.90,-17.33,2.56
1777399366402,2000016,-0.72,-0.50,0.52,-6.96,-17.70,2.44
1777399366402,2000026,-0.73,-0.49,0.52,-7.02,-17.27,2.75
1777399366402,2000036,-0.72,-0.50,0.52,-7.39,-16.42,3.23
1777399366402,2000046,-0.73,-0.49,0.53,-8.18,-15.56,3.17
1777399366402,2000056,-0.72,-0.48,0.53,-9.64,-15.26,2.75
1777399366403,2000066,-0.71,-0.49,0.52,-11.41,-14.22,2.26
1777399366403,2000076,-0.71,-0.48,0.51,-13.06,-13.18,1.95
1777399366403,2000086,-0.70,-0.49,0.50,-14.16,-12.27,2.50
1777399366403,2000096,-0.70,-0.48,0.49,-14.28,-11.78,3.48
1777399366403,2000106,-0.69,-0.48,0.49,-14.04,-10.99,4.39
1777399366403,2000116,-0.69,-0.48,0.49,-14.10,-10.68,5.00
1777399366403,2000126,-0.69,-0.49,0.48,-14.22,-10.99,5.43
1777399366403,2000136,-0.69,-0.49,0.48,-13.67,-11.23,4.88
1777399366404,2000156,-0.69,-0.48,0.48,-12.57,-14.65,2.26
1777399366404,2000176,-0.67,-0.49,0.47,-11.72,-15.20,2.38
1777399366404,2000196,-0.68,-0.51,0.48,-11.47,-14.59,3.48
1777399366404,2000216,-0.68,-0.52,0.49,-10.99,-15.87,1.95
1777399366404,2000226,-0.68,-0.52,0.49,-11.23,-17.52,1.77
1777399366404,2000236,-0.68,-0.52,0.49,-10.86,-18.49,2.32
1777399366404,2000246,-0.69,-0.52,0.49,-10.13,-18.25,3.42
1777399366405,2000256,-0.70,-0.52,0.49,-9.64,-17.03,4.03
1777399366405,2000266,-0.71,-0.51,0.51,-9.89,-15.26,3.91
1777399366405,2000276,-0.72,-0.50,0.51,-10.38,-14.40,3.78
1777399366405,2000286,-0.72,-0.50,0.51,-11.17,-14.40,3.78
1777399366405,2000296,-0.71,-0.50,0.51,-11.96,-14.22,3.48
1777399366405,2000306,-0.71,-0.49,0.51,-12.63,-13.67,3.17
1777399366405,2000316,-0.71,-0.49,0.51,-13.43,-12.45,2.93
1777399366406,2000326,-0.72,-0.48,0.51,-14.04,-11.66,3.17
1777399366406,2000336,-0.71,-0.48,0.50,-13.98,-11.35,3.78
1777399366406,2000346,-0.72,-0.48,0.50,-13.67,-10.38,4.39
1777399366406,2000356,-0.72,-0.48,0.50,-13.18,-9.16,5.07
1777399366406,2000366,-0.73,-0.47,0.50,-12.63,-8.24,5.62
1777399366406,2000376,-0.73,-0.46,0.49,-12.02,-7.39,5.92
1777399366406,2000386,-0.73,-0.46,0.48,-11.23,-6.41,6.16
1777399366406,2000396,-0.73,-0.45,0.48,-9.89,-5.43,6.16
1777399366407,2000406,-0.74,-0.45,0.48,-8.42,-4.21,5.98
1777399366407,2000416,-0.75,-0.45,0.48,-6.90,-3.30,5.43
1777399366407,2000426,-0.76,-0.45,0.49,-5.55,-2.75,3.97
1777399366407,2000436,-0.76,-0.44,0.50,-4.64,-2.69,2.44
1777399366407,2000446,-0.75,-0.44,0.49,-3.97,-2.99,0.92
1777399366407,2000456,-0.74,-0.44,0.48,-3.42,-2.75,0.18
1777399366407,2000466,-0.73,-0.44,0.47,-2.62,-2.26,-0.12
1777399366408,2000476,-0.72,-0.43,0.46,-1.89,-1.77,-0.85
1777399366408,2000496,-0.71,-0.44,0.44,1.34,-0.43,-1.83
1777399366408,2000516,-0.70,-0.44,0.44,3.85,-0.55,-3.05
1777399366408,2000536,-0.72,-0.45,0.47,6.71,-4.09,-4.46
1777399366408,2000556,-0.70,-0.47,0.46,7.26,-7.75,-6.41
1777399366408,2000566,-0.70,-0.47,0.46,8.48,-8.36,-6.35
1777399366408,2000576,-0.71,-0.48,0.47,9.34,-8.61,-5.80
1777399366409,2000586,-0.71,-0.48,0.48,9.58,-8.85,-6.65
1777399366409,2000596,-0.71,-0.48,0.49,9.40,-9.09,-7.69
1777399366409,2000606,-0.71,-0.49,0.49,9.34,-9.52,-7.45
1777399366409,2000616,-0.71,-0.50,0.50,9.09,-9.16,-7.26
1777399366409,2000626,-0.71,-0.50,0.51,8.12,-8.54,-8.30
1777399366409,2000636,-0.70,-0.50,0.50,6.77,-8.54,-9.16
1777399366409,2000646,-0.70,-0.51,0.50,6.10,-8.79,-8.97
1777399366409,2000656,-0.69,-0.51,0.50,5.80,-8.67,-8.54
1777399366410,2000666,-0.69,-0.50,0.50,5.37,-8.12,-8.42
1777399366410,2000676,-0.70,-0.50,0.50,4.82,-7.45,-7.75
1777399366410,2000686,-0.70,-0.50,0.50,4.03,-6.77,-7.32
1777399366410,2000696,-0.70,-0.50,0.50,3.36,-6.41,-7.45
1777399366410,2000706,-0.70,-0.49,0.50,2.62,-6.10,-7.45
1777399366410,2000716,-0.70,-0.49,0.50,1.89,-5.62,-7.39
1777399366410,2000726,-0.70,-0.49,0.50,1.34,-5.80,-7.20
1777399366410,2000736,-0.71,-0.49,0.49,0.98,-6.35,-6.90
1777399366411,2000746,-0.71,-0.49,0.49,0.79,-6.90,-7.20
1777399366411,2000756,-0.72,-0.50,0.49,0.85,-7.32,-7.75
1777399366411,2000766,-0.71,-0.51,0.49,0.92,-7.81,-8.79
1777399366411,2000776,-0.71,-0.49,0.48,1.46,-8.12,-10.25
1777399366411,2000786,-0.71,-0.48,0.49,2.20,-8.54,-10.25
1777399366411,2000796,-0.70,-0.50,0.49,2.32,-8.97,-10.13
1777399366411,2000806,-0.70,-0.49,0.49,2.50,-8.79,-10.74
1777399366411,2000816,-0.70,-0.48,0.49,2.87,-8.36,-10.86
1777399366412,2000826,-0.70,-0.48,0.50,2.87,-7.81,-9.89
1777399366412,2000846,-0.71,-0.48,0.51,2.44,-7.69,-9.64
1777399366412,2000866,-0.72,-0.47,0.52,1.71,-7.02,-9.22
1777399366412,2000886,-0.71,-0.46,0.51,0.98,-6.65,-9.70
1777399366412,2000906,-0.70,-0.47,0.50,0.79,-6.23,-9.28
1777399366412,2000916,-0.70,-0.47,0.50,1.22,-6.16,-9.34
1777399366412,2000926,-0.69,-0.47,0.49,1.10,-6.35,-9.40
1777399366412,2000936,-0.69,-0.47,0.48,1.28,-6.41,-9.03
1777399366412,2000946,-0.68,-0.47,0.48,1.71,-6.10,-8.12
1777399366413,2000956,-0.70,-0.47,0.49,2.14,-5.86,-7.63
1777399366413,2000966,-0.70,-0.47,0.49,2.56,-6.47,-7.57
1777399366413,2000976,-0.70,-0.47,0.49,2.62,-7.26,-7.81
1777399366413,2000986,-0.70,-0.47,0.49,2.50,-7.20,-8.12
1777399366413,2000996,-0.70,-0.47,0.49,2.56,-6.77,-8.24
1777399366413,2001006,-0.70,-0.47,0.49,2.99,-6.10,-7.87
1777399366413,2001016,-0.70,-0.48,0.49,3.60,-5.43,-6.96
1777399366413,2001026,-0.70,-0.48,0.49,4.21,-5.00,-6.16
1777399366414,2001036,-0.71,-0.47,0.51,4.58,-4.46,-5.62
1777399366414,2001046,-0.70,-0.48,0.51,3.91,-5.07,-4.88
1777399366414,2001056,-0.70,-0.50,0.49,2.99,-5.86,-4.94
1777399366414,2001066,-0.71,-0.49,0.50,3.48,-5.74,-5.98
1777399366414,2001076,-0.72,-0.49,0.51,4.70,-5.92,-6.84
1777399366414,2001086,-0.71,-0.49,0.52,5.19,-6.53,-7.45
1777399366414,2001096,-0.71,-0.49,0.51,5.00,-7.45,-8.00
1777399366414,2001106,-0.70,-0.48,0.51,5.19,-7.32,-8.18
1777399366415,2001116,-0.69,-0.48,0.51,5.62,-6.35,-7.32
1777399366415,2001126,-0.69,-0.48,0.51,5.74,-4.46,-6.29
1777399366415,2001136,-0.70,-0.47,0.51,5.86,-2.56,-5.86
1777399366415,2001146,-0.70,-0.48,0.51,5.55,-1.34,-5.68
1777399366415,2001156,-0.70,-0.48,0.51,5.19,-0.98,-5.74
1777399366415,2001166,-0.71,-0.48,0.50,5.49,-1.22,-5.49
1777399366415,2001186,-0.71,-0.49,0.50,7.14,-2.32,-7.02
1777399366416,2001206,-0.71,-0.48,0.49,7.26,-4.27,-6.71
1777399366416,2001226,-0.71,-0.47,0.50,9.95,-4.03,-5.80
1777399366416,2001246,-0.73,-0.47,0.52,10.56,-3.11,-4.33
1777399366416,2001256,-0.74,-0.48,0.53,9.89,-2.69,-4.70
1777399366416,2001266,-0.73,-0.47,0.52,9.03,-2.14,-5.92
1777399366416,2001276,-0.72,-0.47,0.52,7.87,-1.83,-6.71
1777399366416,2001286,-0.71,-0.48,0.50,6.04,-2.01,-7.02
1777399366416,2001296,-0.70,-0.49,0.48,5.31,-1.77,-6.23
1777399366417,2001306,-0.71,-0.48,0.48,5.37,-0.67,-5.31
1777399366417,2001316,-0.69,-0.49,0.47,5.80,0.12,-4.46
1777399366417,2001326,-0.71,-0.49,0.48,5.98,1.22,-4.27
1777399366417,2001336,-0.71,-0.47,0.48,6.23,1.46,-4.15
1777399366417,2001346,-0.71,-0.49,0.48,5.80,1.22,-4.46
1777399366417,2001356,-0.71,-0.49,0.48,5.92,1.40,-5.13
1777399366417,2001366,-0.72,-0.48,0.48,6.71,0.61,-5.55
1777399366417,2001376,-0.73,-0.49,0.49,7.75,0.24,-6.16
1777399366418,2001386,-0.73,-0.48,0.50,8.54,0.00,-8.36
1777399366418,2001396,-0.71,-0.49,0.49,8.18,-0.67,-10.19
1777399366418,2001406,-0.70,-0.48,0.49,8.30,-0.73,-11.29
1777399366418,2001416,-0.69,-0.47,0.48,8.85,-0.49,-11.47
1777399366418,2001426,-0.69,-0.48,0.48,8.79,0.18,-11.35
1777399366418,2001436,-0.68,-0.48,0.48,9.28,0.12,-11.47
1777399366418,2001446,-0.67,-0.48,0.48,9.89,-0.55,-11.66
1777399366418,2001456,-0.67,-0.48,0.49,10.93,-1.22,-11.47
1777399366419,2001466,-0.67,-0.48,0.49,12.21,-2.44,-11.72
1777399366419,2001476,-0.68,-0.48,0.51,13.00,-3.97,-12.94
1777399366419,2001486,-0.66,-0.48,0.51,13.49,-5.98,-13.92
1777399366419,2001496,-0.64,-0.49,0.51,13.43,-7.75,-14.53
1777399366419,2001506,-0.64,-0.48,0.51,13.31,-8.73,-14.53
1777399366419,2001516,-0.62,-0.50,0.50,12.39,-9.77,-12.27
1777399366419,2001536,-0.61,-0.52,0.51,10.01,-12.15,-8.48
1777399366419,2001556,-0.62,-0.54,0.54,8.91,-14.71,-5.13
1777399366420,2001576,-0.66,-0.54,0.56,7.32,-14.77,-1.89
1777399366420,2001596,-0.70,-0.53,0.59,4.58,-11.90,-0.18
1777399366420,2001606,-0.71,-0.53,0.60,2.50,-10.25,-0.06
1777399366420,2001616,-0.71,-0.52,0.59,0.18,-9.64,0.12
1777399366420,2001626,-0.71,-0.52,0.59,-1.65,-9.28,0.98
1777399366420,2001636,-0.70,-0.53,0.56,-2.87,-9.34,1.16
1777399366420,2001646,-0.71,-0.51,0.55,-3.23,-7.69,-0.18
1777399366420,2001656,-0.70,-0.50,0.53,-2.44,-5.92,-1.16
1777399366420,2001666,-0.70,-0.50,0.53,-1.89,-4.88,-1.53
1777399366421,2001676,-0.69,-0.50,0.53,-1.83,-5.07,-2.08
1777399366421,2001686,-0.69,-0.50,0.51,-1.83,-5.62,-3.60
1777399366421,2001696,-0.68,-0.50,0.50,-1.10,-5.68,-5.31
1777399366421,2001706,-0.67,-0.49,0.52,-0.31,-6.04,-5.68
1777399366421,2001716,-0.66,-0.49,0.51,-0.24,-6.96,-5.31
1777399366421,2001726,-0.65,-0.49,0.50,0.12,-6.96,-4.39
1777399366421,2001736,-0.67,-0.48,0.52,0.55,-6.23,-3.54
1777399366421,2001746,-0.67,-0.48,0.54,1.16,-6.10,-2.56
1777399366422,2001756,-0.67,-0.48,0.53,1.46,-6.59,-2.01
1777399366422,2001766,-0.69,-0.46,0.56,0.98,-7.45,-1.65
1777399366422,2001776,-0.69,-0.47,0.54,0.12,-8.48,-0.92
1777399366422,2001786,-0.68,-0.47,0.53,-0.92,-7.81,-1.53
1777399366422,2001796,-0.68,-0.47,0.53,-1.10,-6.59,-1.59
1777399366422,2001806,-0.68,-0.47,0.52,-1.04,-6.47,-1.10
1777399366422,2001816,-0.67,-0.48,0.52,-1.22,-6.90,-1.16
1777399366422,2001826,-0.68,-0.47,0.53,-1.16,-7.81,-2.32
1777399366422,2001836,-0.66,-0.47,0.50,-0.49,-8.54,-2.93
1777399366423,2001846,-0.65,-0.46,0.50,0.12,-8.00,-2.93
1777399366423,2001856,-0.66,-0.47,0.51,0.67,-7.39,-2.38
1777399366423,2001866,-0.65,-0.47,0.50,1.34,-7.45,-2.08
1777399366423,2001886,-0.65,-0.49,0.49,4.03,-10.62,-2.75
1777399366423,2001906,-0.65,-0.50,0.50,8.67,-12.39,-3.42
1777399366423,2001926,-0.68,-0.48,0.53,12.51,-11.54,-3.36
1777399366423,2001936,-0.67,-0.47,0.54,13.55,-10.93,-3.72
1777399366423,2001946,-0.68,-0.47,0.55,13.55,-10.99,-4.15
1777399366424,2001956,-0.68,-0.45,0.54,13.18,-11.23,-4.33
1777399366424,2001966,-0.69,-0.44,0.55,13.00,-9.77,-4.52
1777399366424,2001976,-0.69,-0.44,0.54,13.12,-8.36,-4.64
1777399366424,2001986,-0.71,-0.43,0.56,14.47,-6.41,-5.68
1777399366424,2001996,-0.71,-0.42,0.57,16.78,-3.60,-6.10
1777399366424,2002006,-0.72,-0.41,0.57,18.37,-2.93,-5.62
1777399366424,2002016,-0.72,-0.41,0.57,20.20,-2.81,-4.46
1777399366424,2002026,-0.72,-0.42,0.57,22.03,-2.14,-4.03
1777399366424,2002036,-0.73,-0.41,0.58,23.68,-0.61,-4.27
1777399366425,2002046,-0.74,-0.40,0.58,24.60,0.79,-4.94
1777399366425,2002056,-0.75,-0.40,0.58,25.57,2.32,-5.86
1777399366425,2002066,-0.74,-0.40,0.58,26.37,4.21,-6.77
1777399366425,2002076,-0.75,-0.39,0.58,27.10,6.65,-7.93
1777399366425,2002086,-0.75,-0.38,0.58,28.32,8.54,-8.18
1777399366425,2002096,-0.74,-0.39,0.58,29.11,9.22,-8.67
1777399366425,2002106,-0.74,-0.38,0.58,30.03,10.01,-10.19
1777399366425,2002116,-0.75,-0.37,0.58,31.13,10.25,-10.99
1777399366425,2002126,-0.73,-0.38,0.57,31.74,10.68,-12.08
1777399366426,2002136,-0.75,-0.34,0.59,32.35,11.96,-14.34
1777399366426,2002146,-0.73,-0.39,0.57,32.47,11.11,-15.38
1777399366426,2002156,-0.69,-0.34,0.55,32.90,10.56,-17.09
1777399366426,2002166,-0.69,-0.36,0.55,31.86,12.08,-18.13
1777399366426,2002176,-0.69,-0.36,0.55,32.17,12.08,-17.33
1777399366426,2002186,-0.68,-0.37,0.54,32.90,11.11,-16.97
1777399366426,2002196,-0.69,-0.36,0.54,32.65,11.23,-19.10
1777399366426,2002206,-0.68,-0.36,0.53,32.96,11.05,-19.65
1777399366427,2002226,-0.68,-0.40,0.53,35.16,9.95,-23.44
1777399366427,2002246,-0.69,-0.42,0.55,36.32,4.64,-24.54
1777399366427,2002266,-0.68,-0.39,0.57,36.87,2.87,-27.47
1777399366427,2002286,-0.66,-0.43,0.57,35.28,2.75,-25.76
1777399366427,2002296,-0.69,-0.38,0.59,34.79,5.07,-26.79
1777399366427,2002306,-0.69,-0.41,0.59,34.18,5.92,-25.57
1777399366427,2002316,-0.70,-0.42,0.60,33.33,7.14,-27.40
1777399366427,2002326,-0.71,-0.42,0.61,33.20,7.57,-29.85
1777399366427,2002336,-0.70,-0.42,0.61,33.26,7.26,-32.23
1777399366428,2002346,-0.69,-0.42,0.60,33.63,6.53,-34.24
1777399366428,2002356,-0.71,-0.39,0.61,34.36,5.92,-35.95
1777399366428,2002366,-0.66,-0.44,0.59,35.10,5.19,-36.68
1777399366428,2002376,-0.70,-0.41,0.61,36.50,6.10,-39.79
1777399366428,2002386,-0.67,-0.40,0.62,38.21,6.10,-41.75
1777399366428,2002396,-0.66,-0.44,0.63,38.45,5.25,-43.09
1777399366428,2002406,-0.66,-0.43,0.62,39.18,4.70,-45.96
1777399366428,2002416,-0.65,-0.40,0.63,41.26,5.74,-47.97
1777399366428,2002426,-0.65,-0.40,0.63,41.99,6.65,-47.55
1777399366429,2002436,-0.63,-0.42,0.63,42.48,8.36,-47.12
1777399366429,2002446,-0.67,-0.39,0.67,43.46,11.72,-48.10
1777399366429,2002456,-0.65,-0.39,0.67,43.82,12.94,-47.36
1777399366429,2002466,-0.65,-0.40,0.67,43.40,13.24,-46.88
1777399366429,2002476,-0.65,-0.39,0.68,43.27,13.73,-47.18
1777399366429,2002486,-0.64,-0.39,0.67,43.52,14.16,-46.51
1777399366429,2002496,-0.64,-0.40,0.66,43.21,15.44,-46.08
1777399366429,2002506,-0.65,-0.37,0.66,43.40,17.94,-46.33
1777399366430,2002516,-0.65,-0.36,0.66,42.97,19.84,-45.41
1777399366430,2002526,-0.65,-0.38,0.66,41.69,21.24,-45.10
1777399366430,2002536,-0.63,-0.38,0.64,41.69,22.03,-44.43
1777399366430,2002546,-0.65,-0.37,0.65,41.63,22.40,-43.27
1777399366430,2002556,-0.63,-0.39,0.63,40.95,22.16,-41.20
1777399366430,2002576,-0.62,-0.38,0.60,40.59,22.89,-38.88
1777399366430,2002596,-0.64,-0.40,0.61,39.79,23.13,-36.19
1777399366430,2002616,-0.67,-0.44,0.59,39.18,20.75,-35.58
1777399366430,2002636,-0.68,-0.46,0.58,41.02,23.80,-37.90
1777399366431,2002646,-0.70,-0.49,0.58,42.30,26.43,-37.78
1777399366431,2002656,-0.72,-0.51,0.61,45.59,29.85,-37.54
1777399366431,2002666,-0.74,-0.51,0.64,48.03,32.59,-37.35
1777399366431,2002676,-0.75,-0.51,0.66,47.42,34.48,-37.05
1777399366431,2002686,-0.76,-0.51,0.67,44.56,37.48,-37.41
1777399366431,2002696,-0.75,-0.51,0.66,40.10,40.83,-37.23
1777399366431,2002706,-0.74,-0.52,0.63,34.36,44.68,-35.46
1777399366431,2002716,-0.73,-0.54,0.59,30.58,49.87,-32.78
1777399366431,2002726,-0.75,-0.56,0.56,29.60,58.72,-29.36
1777399366432,2002736,-0.78,-0.58,0.57,30.09,70.98,-26.12
1777399366432,2002746,-0.83,-0.61,0.59,31.25,83.37,-23.68
1777399366432,2002756,-0.85,-0.62,0.59,33.08,94.67,-22.34
1777399366432,2002766,-0.88,-0.62,0.60,34.12,106.75,-22.03
1777399366432,2002776,-0.89,-0.62,0.61,33.20,118.71,-22.34
1777399366432,2002786,-0.91,-0.60,0.61,28.63,129.03,-24.41
1777399366432,2002796,-0.89,-0.58,0.61,19.71,135.99,-27.59
1777399366432,2002806,-0.87,-0.57,0.57,9.03,138.73,-28.99
1777399366432,2002816,-0.85,-0.55,0.53,-1.34,138.55,-28.38
1777399366433,2002826,-0.85,-0.54,0.49,-9.77,135.25,-26.86
1777399366433,2002836,-0.85,-0.53,0.45,-14.53,129.52,-25.70
1777399366433,2002846,-0.85,-0.51,0.39,-16.48,125.00,-26.06
1777399366433,2002856,-0.82,-0.50,0.33,-16.24,124.39,-27.28
1777399366433,2002866,-0.80,-0.48,0.29,-14.47,127.56,-27.71
1777399366433,2002876,-0.81,-0.47,0.26,-11.60,133.12,-27.28
1777399366433,2002886,-0.82,-0.47,0.26,-8.73,138.92,-27.22
1777399366433,2002896,-0.83,-0.44,0.27,-7.51,142.70,-29.11
1777399366434,2002916,-0.81,-0.41,0.26,-23.25,122.44,-32.04
1777399366434,2002936,-0.78,-0.41,0.09,-29.17,99.85,-31.74
1777399366434,2002956,-0.73,-0.42,0.02,-24.23,84.35,-31.01
1777399366434,2002976,-0.73,-0.45,-0.02,-12.45,70.01,-30.52
1777399366434,2002986,-0.73,-0.44,-0.02,-6.41,63.66,-30.88
1777399366434,2002996,-0.74,-0.44,-0.02,-2.08,57.74,-29.85
1777399366434,2003006,-0.75,-0.44,-0.02,-0.12,52.86,-27.89
1777399366434,2003016,-0.75,-0.43,-0.03,0.24,48.77,-26.67
1777399366434,2003026,-0.74,-0.43,-0.05,-0.61,44.98,-24.84
1777399366435,2003036,-0.75,-0.43,-0.06,-2.01,41.93,-22.83
1777399366435,2003046,-0.75,-0.43,-0.08,-3.17,40.04,-21.36
1777399366435,2003056,-0.76,-0.43,-0.10,-3.54,38.70,-20.39
1777399366435,2003066,-0.75,-0.45,-0.11,-2.81,37.72,-19.35
1777399366435,2003076,-0.74,-0.46,-0.13,-1.46,36.80,-19.23
1777399366435,2003086,-0.73,-0.47,-0.14,0.61,35.46,-19.04
1777399366435,2003096,-0.71,-0.49,-0.14,3.85,33.02,-17.82
1777399366435,2003106,-0.69,-0.48,-0.14,7.02,29.66,-16.78
1777399366435,2003116,-0.69,-0.48,-0.14,9.09,25.76,-15.32
1777399366436,2003126,-0.69,-0.48,-0.14,10.50,21.48,-12.82
1777399366436,2003136,-0.70,-0.47,-0.13,11.41,17.46,-10.62
1777399366436,2003146,-0.71,-0.48,-0.14,11.41,14.65,-9.16
1777399366436,2003156,-0.71,-0.48,-0.15,11.17,12.94,-7.93
1777399366436,2003166,-0.72,-0.50,-0.15,11.54,12.70,-6.16
1777399366436,2003176,-0.74,-0.51,-0.13,11.78,12.88,-4.46
1777399366436,2003186,-0.77,-0.51,-0.13,11.41,11.11,-3.42
1777399366436,2003196,-0.78,-0.53,-0.13,10.99,8.54,-3.66
1777399366436,2003206,-0.77,-0.54,-0.13,11.41,5.92,-4.21
1777399366437,2003216,-0.79,-0.55,-0.13,12.76,3.17,-3.78
1777399366437,2003226,-0.81,-0.56,-0.12,15.20,0.18,-2.62
1777399366437,2003236,-0.82,-0.57,-0.11,17.76,-2.08,-2.32
1777399366437,2003246,-0.84,-0.57,-0.09,18.55,-3.60,-4.09
1777399366437,2003266,-0.85,-0.56,-0.10,13.55,-3.60,-5.31
1777399366437,2003286,-0.86,-0.55,-0.10,9.22,1.95,-3.36
1777399366437,2003306,-0.88,-0.59,-0.10,7.45,7.51,-2.44
1777399366437,2003326,-0.85,-0.59,-0.10,8.85,10.99,-4.39
1777399366438,2003336,-0.85,-0.57,-0.10,8.48,11.54,-5.37
1777399366438,2003346,-0.84,-0.56,-0.10,8.36,11.47,-6.59
1777399366438,2003356,-0.84,-0.55,-0.10,7.63,10.01,-7.75
1777399366438,2003366,-0.83,-0.56,-0.11,7.02,7.63,-9.09
1777399366438,2003376,-0.82,-0.56,-0.11,6.04,5.62,-10.01
1777399366438,2003386,-0.82,-0.52,-0.09,4.21,4.03,-9.58
1777399366438,2003396,-0.80,-0.58,-0.10,-0.12,2.50,-6.77
1777399366438,2003406,-0.81,-0.62,-0.11,-4.64,2.44,-5.25
1777399366438,2003416,-0.81,-0.63,-0.12,-6.53,4.09,-4.21
1777399366439,2003426,-0.82,-0.62,-0.13,-7.87,7.45,-3.42
1777399366439,2003436,-0.83,-0.64,-0.14,-8.97,11.05,-1.71
1777399366439,2003446,-0.85,-0.64,-0.14,-10.80,14.65,-1.04
1777399366439,2003456,-0.86,-0.61,-0.14,-12.27,17.21,-0.85
1777399366439,2003466,-0.87,-0.64,-0.15,-13.92,20.08,-0.12
1777399366439,2003476,-0.88,-0.61,-0.14,-15.63,22.83,0.18
1777399366439,2003486,-0.88,-0.64,-0.15,-17.82,24.54,2.26
1777399366439,2003496,-0.88,-0.70,-0.16,-20.26,25.88,5.80
1777399366439,2003506,-0.87,-0.72,-0.17,-19.65,26.86,9.70
1777399366440,2003516,-0.87,-0.71,-0.17,-17.82,28.87,13.85
1777399366440,2003526,-0.87,-0.67,-0.17,-17.15,31.80,17.58
1777399366440,2003536,-0.86,-0.62,-0.17,-19.17,35.77,20.32
1777399366440,2003546,-0.84,-0.56,-0.19,-23.38,40.59,22.28
1777399366440,2003556,-0.81,-0.54,-0.20,-27.83,46.20,23.93
1777399366440,2003566,-0.82,-0.53,-0.23,-31.19,51.64,25.33
1777399366440,2003576,-0.81,-0.52,-0.26,-35.34,57.25,26.31
1777399366441,2003586,-0.80,-0.51,-0.30,-38.94,62.99,44.68
1777399366441,2003606,-0.84,-0.49,-0.33,-47.30,77.82,34.55
1777399366441,2003626,-0.83,-0.44,-0.36,-43.52,72.45,29.54
1777399366441,2003646,-0.78,-0.38,-0.32,-38.33,52.61,24.05
1777399366441,2003666,-0.75,-0.34,-0.36,-43.58,28.93,21.48
1777399366441,2003676,-0.74,-0.32,-0.40,-44.80,22.16,20.14
1777399366441,2003686,-0.73,-0.30,-0.42,-44.56,20.75,18.92
1777399366441,2003696,-0.73,-0.31,-0.44,-43.40,21.67,16.66
1777399366441,2003706,-0.72,-0.32,-0.46,-40.22,23.80,12.82
1777399366442,2003716,-0.71,-0.31,-0.43,-35.77,24.96,9.34
1777399366442,2003726,-0.73,-0.33,-0.43,-32.41,21.30,6.47
1777399366442,2003736,-0.73,-0.32,-0.41,-27.28,13.98,3.11
1777399366442,2003746,-0.73,-0.31,-0.38,-21.61,2.87,-1.10
1777399366442,2003756,-0.70,-0.30,-0.37,-19.90,-11.84,-4.21
1777399366442,2003766,-0.69,-0.30,-0.40,-21.00,-24.35,-4.03
1777399366442,2003776,-0.68,-0.27,-0.47,-21.18,-31.01,-1.34
1777399366442,2003786,-0.70,-0.27,-0.55,-18.01,-30.52,0.49
1777399366442,2003796,-0.74,-0.26,-0.58,-7.45,-23.99,-1.46
1777399366442,2003806,-0.77,-0.20,-0.57,8.30,-16.30,-5.62
1777399366443,2003816,-0.80,-0.16,-0.50,21.24,-12.45,-11.05
1777399366443,2003826,-0.81,-0.11,-0.45,26.67,-16.85,-17.58
1777399366443,2003836,-0.79,-0.10,-0.45,27.89,-30.76,-25.45
1777399366443,2003846,-0.75,-0.08,-0.46,31.31,-48.71,-31.37
1777399366443,2003856,-0.69,-0.07,-0.47,37.05,-65.98,-34.24
1777399366443,2003866,-0.65,-0.10,-0.47,44.07,-81.48,-33.94
1777399366443,2003876,-0.62,-0.11,-0.46,54.26,-94.18,-32.59
1777399366443,2003886,-0.59,-0.13,-0.43,65.43,-103.45,-31.86
1777399366444,2003896,-0.58,-0.15,-0.40,76.72,-109.44,-32.23
1777399366444,2003906,-0.57,-0.18,-0.39,88.32,-111.27,-34.73
1777399366444,2003916,-0.56,-0.23,-0.36,98.88,-108.40,-36.19
1777399366444,2003926,-0.56,-0.25,-0.29,109.74,-101.75,-33.33
1777399366444,2003936,-0.61,-0.31,-0.16,115.48,-95.70,-23.25
1777399366444,2003956,-0.74,-0.42,0.01,100.46,-108.34,-17.40
1777399366444,2003976,-0.92,-0.61,0.13,96.92,-120.85,-15.01
1777399366444,2003996,-0.99,-0.69,0.28,94.36,-114.69,-24.54
1777399366444,2004016,-1.00,-0.75,0.42,72.75,-91.13,-24.54
1777399366445,2004026,-1.00,-0.77,0.46,57.31,-73.12,-20.81
1777399366445,2004036,-1.00,-0.77,0.48,40.65,-50.11,-16.05
1777399366445,2004046,-1.01,-0.77,0.51,23.13,-22.95,-11.96
1777399366445,2004056,-1.02,-0.75,0.52,4.33,5.43,-9.58
1777399366445,2004066,-1.01,-0.73,0.49,-15.56,32.47,-8.85
1777399366445,2004076,-1.00,-0.71,0.44,-33.20,56.52,-8.79
1777399366445,2004086,-0.97,-0.68,0.38,-48.03,77.21,-11.23
1777399366445,2004096,-0.92,-0.64,0.30,-59.81,93.99,-13.37
1777399366445,2004106,-0.86,-0.60,0.23,-66.22,107.18,-11.11
1777399366446,2004116,-0.82,-0.58,0.18,-70.25,116.64,-7.45
1777399366446,2004126,-0.78,-0.56,0.15,-74.95,122.99,-5.55
1777399366446,2004136,-0.74,-0.52,0.13,-81.36,126.77,-4.21
1777399366446,2004146,-0.72,-0.51,0.12,-90.33,125.92,-2.01
1777399366446,2004156,-0.69,-0.47,0.09,-99.85,119.08,-0.37
1777399366446,2004166,-0.66,-0.45,0.01,-108.95,108.22,1.34
1777399366446,2004176,-0.64,-0.41,-0.11,-113.16,97.23,4.15
1777399366446,2004186,-0.62,-0.39,-0.23,-109.80,89.05,8.42
1777399366446,2004196,-0.63,-0.36,-0.32,-98.82,84.11,12.76
1777399366447,2004206,-0.65,-0.34,-0.38,-84.35,80.93,16.97
1777399366447,2004216,-0.66,-0.33,-0.39,-70.19,76.42,20.08
1777399366447,2004226,-0.69,-0.32,-0.41,-60.97,68.60,20.57
1777399366447,2004236,-0.71,-0.30,-0.44,-56.70,57.43,19.53
1777399366447,2004246,-0.73,-0.27,-0.49,-55.48,44.13,18.98
1777399366447,2004256,-0.75,-0.24,-0.57,-55.66,31.25,20.26
1777399366447,2004266,-0.77,-0.23,-0.65,-56.09,22.77,22.28
1777399366447,2004276,-0.80,-0.22,-0.71,-55.30,19.65,23.93
1777399366448,2004296,-0.88,-0.22,-0.82,-36.19,22.09,18.80
1777399366448,2004316,-0.92,-0.24,-0.78,-11.60,17.64,11.35
1777399366448,2004336,-0.89,-0.26,-0.72,1.95,0.37,5.25
1777399366448,2004356,-0.87,-0.29,-0.65,12.63,-14.10,-0.24
1777399366448,2004366,-0.85,-0.31,-0.61,18.19,-19.10,-3.48
1777399366448,2004376,-0.83,-0.33,-0.56,22.52,-22.77,-6.84
1777399366448,2004386,-0.81,-0.34,-0.52,25.82,-24.54,-8.97
1777399366448,2004396,-0.79,-0.34,-0.48,28.99,-24.60,-9.77
1777399366448,2004406,-0.79,-0.35,-0.43,32.17,-23.62,-10.19
1777399366449,2004416,-0.79,-0.37,-0.38,35.34,-22.95,-10.99
1777399366449,2004426,-0.78,-0.38,-0.32,37.96,-23.13,-11.84
1777399366449,2004436,-0.78,-0.39,-0.28,38.64,-25.02,-11.47
1777399366449,2004446,-0.79,-0.41,-0.26,38.51,-28.32,-10.80
1777399366449,2004456,-0.79,-0.41,-0.25,38.39,-31.19,-11.17
1777399366449,2004466,-0.79,-0.41,-0.24,37.54,-32.04,-11.47
1777399366449,2004476,-0.79,-0.41,-0.24,35.40,-30.88,-11.11
1777399366449,2004486,-0.80,-0.42,-0.25,32.90,-27.71,-10.80
1777399366449,2004496,-0.80,-0.43,-0.25,31.56,-23.32,-11.54
1777399366450,2004506,-0.80,-0.43,-0.24,31.37,-18.37,-13.12
1777399366450,2004516,-0.80,-0.43,-0.22,31.01,-13.67,-14.65
1777399366450,2004526,-0.80,-0.44,-0.21,30.21,-10.56,-15.14
1777399366450,2004536,-0.80,-0.45,-0.19,28.56,-9.89,-14.83
1777399366450,2004546,-0.80,-0.46,-0.20,25.88,-11.35,-14.65
1777399366450,2004556,-0.80,-0.46,-0.22,23.44,-13.12,-13.73
1777399366450,2004566,-0.82,-0.45,-0.22,22.16,-13.67,-11.66
1777399366450,2004576,-0.85,-0.45,-0.23,20.69,-14.40,-11.11
1777399366450,2004586,-0.87,-0.45,-0.25,19.17,-14.95,-11.96
1777399366451,2004596,-0.87,-0.46,-0.27,17.46,-14.40,-12.57
1777399366451,2004606,-0.86,-0.47,-0.29,15.50,-12.39,-12.33
1777399366451,2004616,-0.87,-0.47,-0.29,13.98,-9.70,-11.11
1777399366451,2004626,-0.86,-0.48,-0.28,13.00,-7.93,-8.12
1777399366451,2004646,-0.84,-0.48,-0.27,9.03,-8.67,-4.94
1777399366451,2004666,-0.83,-0.53,-0.25,0.00,-8.97,-0.06
1777399366451,2004686,-0.86,-0.57,-0.22,-8.54,-12.15,2.38
1777399366451,2004706,-0.87,-0.53,-0.21,-17.88,-6.59,4.70
1777399366451,2004716,-0.91,-0.53,-0.18,-22.40,6.16,6.84
1777399366451,2004726,-0.90,-0.51,-0.18,-28.63,22.09,4.82
1777399366452,2004736,-0.87,-0.49,-0.17,-34.91,40.53,0.43
1777399366452,2004746,-0.82,-0.50,-0.16,-41.20,59.69,-1.71
1777399366455,2004756,-0.77,-0.48,-0.17,-47.30,75.26,-2.81
1777399366465,2004766,-0.73,-0.45,-0.22,-55.11,86.00,-5.62
1777399366475,2004776,-0.70,-0.42,-0.31,-61.95,93.93,-9.77
1777399366485,2004786,-0.68,-0.38,-0.41,-66.04,99.98,-13.43
1777399366495,2004796,-0.66,-0.33,-0.53,-68.54,101.99,-16.42
1777399366505,2004806,-0.66,-0.31,-0.64,-67.26,98.27,-18.13
1777399366515,2004816,-0.69,-0.29,-0.66,-57.86,87.52,-19.47
1777399366525,2004826,-0.72,-0.25,-0.67,-46.02,64.27,-23.68
1777399366535,2004836,-0.71,-0.23,-0.72,-33.87,29.42,-30.94
1777399366545,2004846,-0.67,-0.22,-0.76,-17.88,-7.69,-37.66
1777399366555,2004856,-0.66,-0.22,-0.75,-0.37,-40.59,-41.50
1777399366565,2004866,-0.69,-0.25,-0.68,13.92,-68.66,-43.15
1777399366575,2004876,-0.70,-0.27,-0.61,23.56,-94.85,-45.65
1777399366585,2004886,-0.69,-0.29,-0.58,32.41,-116.33,-46.20
1777399366595,2004896,-0.68,-0.31,-0.56,43.76,-125.98,-43.09
1777399366605,2004906,-0.68,-0.32,-0.48,57.07,-116.21,-37.54
1777399366615,2004916,-0.73,-0.33,-0.37,66.71,-89.72,-31.19
1777399366625,2004926,-0.80,-0.32,-0.24,67.87,-54.75,-27.65
1777399366635,2004936,-0.89,-0.32,-0.13,58.84,-20.69,-27.89
1777399366645,2004946,-0.93,-0.32,-0.08,44.98,4.52,-30.15
1777399366655,2004956,-0.95,-0.32,-0.07,33.81,17.94,-32.04
1777399366665,2004966,-0.93,-0.30,-0.07,27.10,21.06,-34.85
1777399366685,2004986,-0.77,-0.21,-0.19,18.49,-8.54,-41.93
1777399366707,2005006,-0.58,-0.07,-0.39,33.69,-26.06,-42.42
1777399366725,2005026,-0.27,-0.01,-0.41,51.21,-41.87,-38.27
1777399366745,2005046,-0.11,-0.02,-0.40,62.19,-58.35,-29.66
1777399366755,2005056,-0.05,-0.03,-0.39,68.42,-67.50,-24.84
1777399366768,2005066,-0.01,-0.05,-0.37,76.23,-77.58,-19.96
1777399366775,2005076,0.02,-0.07,-0.32,85.45,-88.20,-16.85
1777399366785,2005086,0.00,-0.08,-0.20,93.69,-101.93,-16.17
1777399366795,2005096,-0.04,-0.09,-0.08,97.72,-124.33,-17.94
1777399366805,2005106,-0.09,-0.09,0.00,96.44,-156.01,-22.40
1777399366815,2005116,-0.15,-0.11,0.05,92.77,-191.53,-31.56
1777399366825,2005126,-0.20,-0.20,0.03,94.54,-223.82,-41.20
1777399366835,2005136,-0.26,-0.47,-0.02,101.62,-245.79,-47.67
1777399366845,2005146,-0.28,-1.00,-0.08,114.99,-256.96,-53.77
1777399366855,2005156,-0.28,-1.86,-0.23,135.93,-256.96,-55.36
1777399366865,2005166,-0.59,-3.41,-0.24,165.71,-239.50,-42.91
1777399366875,2005176,-1.20,-4.00,0.09,221.86,-220.09,-27.95
1777399366885,2005186,-2.13,-4.00,0.85,299.01,-227.11,-31.07
1777399366895,2005196,-3.26,-4.00,2.07,354.68,-261.17,-43.33
1777399366905,2005206,-4.00,-4.00,3.55,320.74,-301.51,-52.06
1777399366915,2005216,-4.00,-4.00,4.00,157.53,-321.78,-67.26
1777399366925,2005226,-4.00,-4.00,4.00,-122.44,-272.64,-93.08
1777399366935,2005236,-3.68,-3.59,3.62,-411.44,-87.89,-85.82
1777399366945,2005246,-3.52,-2.33,3.24,-615.30,168.03,-55.11
1777399366955,2005256,-3.38,-1.35,3.10,-715.45,349.00,-48.28
1777399366965,2005266,-2.82,-0.66,2.68,-722.05,388.49,-84.59
1777399366975,2005276,-1.88,-0.28,2.21,-653.81,332.28,-166.50
1777399366985,2005286,-0.82,0.57,1.93,-550.05,227.72,-245.79
1777399366995,2005296,0.09,1.50,1.92,-457.70,93.38,-267.33
1777399367005,2005306,0.49,1.97,1.73,-385.93,-65.12,-247.80
1777399367015,2005316,1.09,2.35,1.32,-318.48,-211.18,-194.21
1777399367035,2005336,2.26,3.47,0.44,-51.27,-47.97,-59.88
1777399367055,2005356,0.97,3.39,2.76,25.94,227.36,80.02
1777399367075,2005376,-0.31,2.48,1.95,-88.44,61.71,20.69
1777399367095,2005396,0.30,1.72,-0.12,-115.30,-46.20,15.63
1777399367105,2005406,0.17,1.37,-0.52,-94.73,-11.41,43.46
1777399367115,2005416,-0.04,1.04,-0.75,-76.72,22.89,68.42
1777399367125,2005426,-0.36,0.71,-0.83,-53.34,39.37,82.21
1777399367135,2005436,-0.64,0.38,-0.84,-17.09,30.64,83.80
1777399367145,2005446,-0.82,0.04,-0.88,26.18,1.10,72.94
1777399367155,2005456,-0.96,-0.20,-0.78,67.02,-30.76,55.42
1777399367165,2005466,-0.99,-0.41,-0.71,98.14,-60.79,36.32
1777399367175,2005476,-0.98,-0.60,-0.62,118.47,-75.38,19.71
1777399367185,2005486,-0.94,-0.76,-0.55,127.38,-72.51,11.60
1777399367195,2005496,-0.94,-0.90,-0.45,127.75,-56.27,15.14
1777399367205,2005506,-1.01,-1.03,-0.36,118.35,-33.39,24.66
1777399367215,2005516,-1.10,-1.16,-0.29,104.80,-14.59,29.79
1777399367225,2005526,-1.09,-1.26,-0.31,94.97,-8.12,26.55
1777399367235,2005536,-1.00,-1.32,-0.36,94.42,-10.86,18.01
1777399367245,2005546,-0.89,-1.36,-0.36,101.81,-16.05,7.63
1777399367255,2005556,-0.78,-1.35,-0.30,112.85,-23.01,-1.53
1777399367265,2005566,-0.69,-1.30,-0.20,120.18,-32.65,-5.92
1777399367275,2005576,-0.61,-1.24,-0.16,121.46,-41.99,-3.72
1777399367285,2005586,-0.61,-1.16,-0.17,116.70,-39.73,4.58
1777399367295,2005596,-0.68,-1.08,-0.20,105.35,-22.22,19.10
1777399367305,2005606,-0.83,-1.05,-0.18,87.34,7.14,33.94
1777399367315,2005616,-1.00,-1.08,-0.16,66.47,33.57,40.89
1777399367325,2005626,-1.11,-1.13,-0.17,50.48,42.48,35.46
1777399367335,2005636,-1.13,-1.14,-0.18,43.82,29.11,20.63
1777399367345,2005646,-1.03,-1.11,-0.20,44.62,-0.31,1.71
1777399367355,2005656,-0.88,-1.08,-0.23,50.48,-31.98,-16.17
1777399367365,2005666,-0.70,-0.97,-0.22,58.78,-71.17,-41.14
