host_time_ms,arduino_time_ms,ax,ay,az,gx,gy,gz
1777399379051,2010646,-0.25,-0.63,-0.26,92.83,-32.17,-2.69
1777399379051,2010656,-0.25,-0.64,-0.27,100.77,-31.92,1.71
1777399379052,2010666,-0.30,-0.66,-0.26,109.80,-27.83,6.90
1777399379052,2010676,-0.39,-0.66,-0.22,115.11,-23.25,11.54
1777399379052,2010686,-0.47,-0.68,-0.20,115.36,-21.73,16.30
1777399379052,2010696,-0.53,-0.71,-0.19,114.32,-21.85,19.90
1777399379053,2010706,-0.56,-0.72,-0.15,115.48,-24.23,20.14
1777399379053,2010716,-0.55,-0.70,-0.13,116.88,-29.60,16.17
1777399379053,2010726,-0.52,-0.70,-0.12,118.96,-35.34,10.38
1777399379053,2010736,-0.48,-0.68,-0.09,123.23,-41.14,4.58
1777399379054,2010746,-0.46,-0.66,-0.06,128.54,-49.68,-0.43
1777399379054,2010756,-0.46,-0.69,-0.09,133.18,-59.33,-1.83
1777399379054,2010766,-0.50,-0.76,-0.10,134.22,-63.90,-0.12
1777399379054,2010776,-0.55,-0.85,-0.09,132.93,-64.09,3.42
1777399379055,2010786,-0.60,-0.90,-0.07,133.12,-62.13,6.04
1777399379055,2010796,-0.64,-0.94,-0.04,134.16,-59.39,5.74
1777399379055,2010806,-0.69,-0.99,0.02,136.60,-56.70,3.17
1777399379055,2010816,-0.74,-1.03,0.09,142.76,-54.93,-2.56
1777399379056,2010826,-0.75,-1.04,0.19,150.27,-53.59,-11.29
1777399379056,2010836,-0.74,-1.03,0.31,154.97,-53.96,-19.96
1777399379056,2010846,-0.74,-0.97,0.39,153.20,-55.54,-24.84
1777399379057,2010866,-0.75,-0.97,0.46,108.95,-47.42,-20.45
1777399379057,2010886,-0.72,-1.04,0.35,89.60,-41.38,-19.10
1777399379057,2010906,-0.69,-1.02,0.30,83.37,-29.85,-16.91
1777399379058,2010926,-0.67,-0.99,0.33,84.35,-17.27,-17.46
1777399379058,2010936,-0.66,-0.95,0.37,84.17,-13.37,-20.51
1777399379058,2010946,-0.65,-0.93,0.42,82.46,-11.54,-22.16
1777399379058,2010956,-0.64,-0.90,0.44,77.21,-12.45,-21.85
1777399379059,2010966,-0.62,-0.88,0.44,69.76,-12.70,-19.41
1777399379059,2010976,-0.61,-0.86,0.45,62.38,-10.56,-15.56
1777399379059,2010986,-0.61,-0.84,0.45,55.30,-6.90,-10.62
1777399379059,2010996,-0.61,-0.83,0.43,48.52,-2.75,-5.74
1777399379060,2011006,-0.63,-0.83,0.43,42.60,0.92,-2.75
1777399379060,2011016,-0.63,-0.85,0.41,39.31,2.81,-2.14
1777399379060,2011026,-0.62,-0.85,0.40,39.37,2.50,-3.48
1777399379060,2011036,-0.61,-0.83,0.41,40.71,1.65,-6.10
1777399379060,2011046,-0.59,-0.82,0.42,41.75,-0.73,-9.09
1777399379060,2011056,-0.56,-0.80,0.42,42.85,-3.30,-11.41
1777399379060,2011066,-0.55,-0.78,0.44,43.03,-5.19,-13.85
1777399379061,2011076,-0.55,-0.77,0.47,41.75,-6.29,-15.32
1777399379061,2011086,-0.56,-0.74,0.50,38.82,-7.45,-15.50
1777399379061,2011096,-0.56,-0.73,0.51,34.42,-8.30,-14.65
1777399379061,2011106,-0.56,-0.73,0.51,29.97,-6.47,-13.37
1777399379061,2011116,-0.56,-0.72,0.50,26.37,-3.17,-11.72
1777399379061,2011126,-0.56,-0.72,0.50,23.38,1.77,-9.52
1777399379061,2011136,-0.57,-0.72,0.50,21.55,6.71,-6.59
1777399379061,2011146,-0.57,-0.72,0.51,21.00,10.86,-4.21
1777399379062,2011156,-0.55,-0.71,0.51,20.45,12.33,-3.91
1777399379062,2011166,-0.55,-0.69,0.51,19.71,11.17,-4.27
1777399379062,2011176,-0.54,-0.69,0.50,19.10,7.81,-3.66
1777399379062,2011186,-0.53,-0.67,0.48,19.04,4.46,-3.97
1777399379062,2011206,-0.54,-0.63,0.47,10.25,0.18,-3.97
1777399379062,2011226,-0.54,-0.64,0.42,7.08,-0.55,-1.89
1777399379062,2011246,-0.55,-0.66,0.43,11.35,0.73,0.61
1777399379062,2011266,-0.56,-0.66,0.47,17.15,-1.71,1.71
1777399379063,2011276,-0.56,-0.64,0.49,18.07,-4.15,1.40
1777399379063,2011286,-0.56,-0.63,0.49,16.91,-8.36,1.22
1777399379063,2011296,-0.54,-0.64,0.48,15.32,-12.27,1.59
1777399379063,2011306,-0.53,-0.63,0.47,14.10,-14.77,2.44
1777399379063,2011316,-0.52,-0.63,0.46,12.94,-15.69,3.42
1777399379063,2011326,-0.52,-0.64,0.47,12.63,-15.38,5.19
1777399379063,2011336,-0.53,-0.64,0.48,13.43,-14.34,8.06
1777399379063,2011346,-0.54,-0.65,0.49,15.38,-12.76,10.86
1777399379064,2011356,-0.56,-0.64,0.51,17.76,-10.38,12.39
1777399379064,2011366,-0.57,-0.64,0.53,19.59,-6.59,13.31
1777399379064,2011376,-0.57,-0.63,0.56,19.59,-2.75,14.65
1777399379064,2011386,-0.58,-0.63,0.57,17.94,-0.67,16.42
1777399379064,2011396,-0.60,-0.62,0.59,16.05,0.18,17.58
1777399379064,2011406,-0.62,-0.62,0.60,13.67,-0.43,17.64
1777399379064,2011416,-0.62,-0.61,0.61,10.74,-2.56,16.66
1777399379064,2011426,-0.61,-0.60,0.59,6.96,-5.62,14.83
1777399379065,2011436,-0.60,-0.59,0.57,2.26,-7.81,12.21
1777399379065,2011446,-0.59,-0.59,0.54,-1.46,-9.09,10.44
1777399379065,2011456,-0.57,-0.60,0.50,-2.62,-9.46,10.25
1777399379065,2011466,-0.57,-0.61,0.49,-1.46,-8.48,10.62
1777399379065,2011476,-0.58,-0.61,0.50,0.92,-6.84,11.11
1777399379065,2011486,-0.58,-0.61,0.50,3.36,-5.68,10.86
1777399379065,2011496,-0.59,-0.60,0.51,5.25,-5.25,10.25
1777399379066,2011506,-0.60,-0.61,0.52,6.90,-5.31,9.52
1777399379066,2011516,-0.61,-0.61,0.54,8.00,-5.98,7.87
1777399379066,2011526,-0.62,-0.60,0.56,7.45,-8.36,5.13
1777399379066,2011536,-0.61,-0.60,0.57,5.86,-12.94,-0.37
1777399379066,2011556,-0.59,-0.59,0.54,5.31,-23.62,-2.08
1777399379067,2011576,-0.62,-0.57,0.55,9.83,-16.97,-0.98
1777399379067,2011596,-0.61,-0.55,0.58,11.96,-9.52,0.61
1777399379067,2011616,-0.63,-0.56,0.60,9.58,-7.08,0.49
1777399379067,2011626,-0.64,-0.57,0.61,8.12,-6.65,-0.12
1777399379067,2011636,-0.66,-0.58,0.62,7.20,-8.18,-1.65
1777399379067,2011646,-0.66,-0.58,0.62,6.71,-11.35,-4.46
1777399379068,2011656,-0.65,-0.58,0.61,6.59,-14.04,-7.39
1777399379068,2011666,-0.62,-0.57,0.60,6.84,-15.08,-9.64
1777399379068,2011676,-0.61,-0.56,0.58,6.90,-14.16,-10.50
1777399379068,2011686,-0.60,-0.56,0.57,6.90,-11.72,-9.83
1777399379068,2011696,-0.60,-0.56,0.58,6.71,-8.79,-8.97
1777399379069,2011706,-0.60,-0.56,0.58,5.98,-6.29,-8.67
1777399379069,2011716,-0.60,-0.55,0.58,5.00,-5.31,-8.30
1777399379069,2011726,-0.60,-0.55,0.56,4.58,-4.15,-7.32
1777399379069,2011736,-0.59,-0.55,0.55,4.58,-2.32,-6.29
1777399379069,2011746,-0.59,-0.55,0.55,5.13,0.55,-5.74
1777399379070,2011756,-0.59,-0.54,0.55,5.74,4.15,-5.55
1777399379070,2011766,-0.59,-0.54,0.55,6.10,6.96,-4.88
1777399379070,2011776,-0.60,-0.54,0.55,6.04,8.73,-4.39
1777399379070,2011786,-0.60,-0.55,0.55,5.49,8.67,-4.39
1777399379070,2011796,-0.61,-0.55,0.55,5.00,6.71,-5.07
1777399379071,2011806,-0.61,-0.56,0.55,4.64,3.23,-6.10
1777399379071,2011816,-0.60,-0.56,0.54,4.58,-0.67,-7.14
1777399379071,2011826,-0.59,-0.57,0.53,4.70,-4.76,-8.48
1777399379071,2011836,-0.59,-0.56,0.52,5.07,-7.26,-9.28
1777399379071,2011846,-0.58,-0.56,0.52,5.98,-7.39,-9.64
1777399379071,2011856,-0.58,-0.56,0.53,6.96,-5.92,-9.77
1777399379072,2011866,-0.59,-0.55,0.54,7.81,-3.78,-9.34
1777399379072,2011876,-0.59,-0.55,0.56,7.81,-1.77,-9.03
1777399379072,2011896,-0.58,-0.56,0.55,5.31,-1.71,-10.38
1777399379072,2011916,-0.58,-0.57,0.56,6.71,-3.11,-10.25
1777399379072,2011936,-0.58,-0.59,0.57,6.77,-8.91,-12.88
1777399379072,2011956,-0.54,-0.59,0.55,6.29,-13.43,-14.10
1777399379073,2011966,-0.53,-0.58,0.55,6.04,-12.33,-13.00
1777399379073,2011976,-0.53,-0.59,0.55,5.43,-9.58,-11.23
1777399379073,2011986,-0.52,-0.59,0.56,4.82,-6.35,-9.40
1777399379073,2011996,-0.53,-0.59,0.56,3.54,-3.72,-7.26
1777399379073,2012006,-0.53,-0.61,0.57,2.20,-2.32,-5.19
1777399379074,2012016,-0.54,-0.62,0.58,1.46,-2.87,-4.15
1777399379074,2012026,-0.54,-0.62,0.59,1.04,-4.70,-4.21
1777399379074,2012036,-0.54,-0.63,0.58,0.37,-7.26,-5.43
1777399379074,2012046,-0.53,-0.64,0.58,-0.61,-10.38,-6.65
1777399379074,2012056,-0.51,-0.65,0.57,-0.67,-13.24,-6.84
1777399379074,2012066,-0.50,-0.64,0.58,-0.37,-15.26,-6.16
1777399379075,2012076,-0.49,-0.65,0.58,-0.12,-17.15,-4.46
1777399379075,2012086,-0.51,-0.64,0.59,-0.31,-18.19,-2.38
1777399379075,2012096,-0.52,-0.64,0.61,0.31,-17.21,-0.31
1777399379075,2012106,-0.55,-0.62,0.63,1.59,-15.69,1.04
1777399379075,2012116,-0.58,-0.61,0.66,2.87,-13.31,2.56
1777399379075,2012126,-0.60,-0.61,0.68,3.36,-10.80,4.09
1777399379076,2012136,-0.63,-0.60,0.72,2.87,-8.06,4.03
1777399379076,2012146,-0.65,-0.58,0.74,1.53,-6.10,2.93
1777399379076,2012156,-0.64,-0.56,0.74,-1.28,-4.46,2.62
1777399379076,2012166,-0.63,-0.54,0.71,-5.43,-2.01,2.75
1777399379076,2012176,-0.62,-0.52,0.68,-10.38,1.77,3.42
1777399379076,2012186,-0.61,-0.52,0.65,-14.16,5.86,5.25
1777399379077,2012196,-0.61,-0.51,0.61,-16.30,8.97,6.90
1777399379077,2012206,-0.60,-0.50,0.57,-17.58,11.35,7.20
1777399379077,2012216,-0.59,-0.50,0.53,-18.07,13.00,7.51
1777399379077,2012226,-0.59,-0.49,0.49,-16.42,14.59,7.20
1777399379077,2012246,-0.60,-0.49,0.46,-3.85,20.51,4.21
1777399379077,2012266,-0.61,-0.50,0.50,2.14,15.87,0.79
1777399379078,2012286,-0.61,-0.52,0.48,4.21,5.49,-3.66
1777399379078,2012306,-0.57,-0.53,0.45,8.00,-3.54,-7.81
1777399379078,2012316,-0.56,-0.53,0.45,10.25,-5.62,-8.61
1777399379078,2012326,-0.56,-0.53,0.46,12.51,-6.35,-8.67
1777399379078,2012336,-0.57,-0.54,0.48,14.16,-6.59,-8.18
1777399379078,2012346,-0.58,-0.55,0.50,15.08,-7.02,-7.93
1777399379079,2012356,-0.59,-0.55,0.52,15.38,-7.08,-7.81
1777399379079,2012366,-0.60,-0.56,0.54,15.32,-6.90,-7.32
1777399379079,2012376,-0.61,-0.57,0.55,14.53,-6.35,-6.96
1777399379079,2012386,-0.61,-0.58,0.56,13.24,-6.53,-6.96
1777399379079,2012396,-0.61,-0.58,0.57,12.45,-6.96,-7.02
1777399379079,2012406,-0.62,-0.59,0.58,11.66,-7.63,-6.71
1777399379080,2012416,-0.63,-0.59,0.59,11.05,-8.73,-6.41
1777399379080,2012426,-0.62,-0.59,0.59,10.13,-9.64,-6.53
1777399379080,2012436,-0.62,-0.58,0.60,8.67,-9.89,-6.53
1777399379080,2012446,-0.62,-0.57,0.60,7.02,-9.70,-5.98
1777399379080,2012456,-0.62,-0.56,0.60,5.37,-8.67,-5.25
1777399379080,2012466,-0.61,-0.55,0.59,3.60,-7.45,-4.03
1777399379080,2012476,-0.61,-0.55,0.59,1.59,-6.23,-2.75
1777399379081,2012486,-0.61,-0.55,0.58,-0.55,-5.74,-1.83
1777399379081,2012496,-0.61,-0.55,0.58,-2.38,-5.80,-1.04
1777399379081,2012506,-0.61,-0.55,0.57,-4.21,-6.65,-0.31
1777399379081,2012516,-0.61,-0.55,0.56,-5.62,-8.24,0.06
1777399379081,2012526,-0.60,-0.55,0.54,-6.71,-9.58,0.49
1777399379081,2012536,-0.59,-0.55,0.52,-7.45,-9.64,1.83
1777399379082,2012546,-0.59,-0.54,0.52,-7.26,-8.61,3.54
1777399379082,2012556,-0.60,-0.53,0.52,-7.14,-7.02,4.88
1777399379082,2012566,-0.61,-0.53,0.52,-7.32,-5.86,6.04
1777399379082,2012576,-0.62,-0.53,0.52,-7.39,-4.94,7.26
1777399379082,2012596,-0.64,-0.54,0.52,-6.10,-5.07,6.65
1777399379082,2012616,-0.64,-0.53,0.53,-7.08,-3.48,5.86
1777399379082,2012636,-0.64,-0.53,0.50,-8.73,-3.91,4.33
1777399379083,2012646,-0.64,-0.54,0.50,-8.06,-4.21,4.21
1777399379083,2012656,-0.65,-0.55,0.50,-6.53,-5.37,3.72
1777399379083,2012666,-0.65,-0.55,0.51,-5.00,-7.57,2.26
1777399379083,2012676,-0.65,-0.55,0.52,-3.78,-10.31,0.06
1777399379083,2012686,-0.64,-0.55,0.52,-2.99,-13.31,-2.26
1777399379083,2012696,-0.63,-0.55,0.51,-2.50,-15.69,-4.15
1777399379083,2012706,-0.62,-0.55,0.51,-2.08,-16.11,-5.43
1777399379084,2012716,-0.61,-0.55,0.51,-1.65,-15.08,-5.49
1777399379084,2012726,-0.60,-0.56,0.51,-1.65,-13.55,-4.88
1777399379084,2012736,-0.60,-0.56,0.51,-2.01,-12.39,-4.58
1777399379084,2012746,-0.61,-0.57,0.52,-2.26,-11.47,-4.33
1777399379084,2012756,-0.62,-0.58,0.53,-2.26,-11.66,-4.09
1777399379084,2012766,-0.62,-0.58,0.54,-2.20,-12.45,-4.58
1777399379085,2012776,-0.62,-0.58,0.54,-2.32,-13.49,-5.43
1777399379085,2012786,-0.62,-0.57,0.55,-2.56,-14.04,-6.29
1777399379085,2012796,-0.61,-0.56,0.54,-2.62,-14.47,-6.29
1777399379085,2012806,-0.61,-0.56,0.55,-2.32,-13.92,-5.55
1777399379085,2012816,-0.62,-0.55,0.56,-2.01,-12.76,-5.13
1777399379085,2012826,-0.63,-0.54,0.57,-2.26,-11.41,-5.07
1777399379085,2012836,-0.64,-0.54,0.58,-3.17,-10.80,-4.58
1777399379086,2012846,-0.64,-0.53,0.58,-3.91,-10.19,-3.97
1777399379086,2012856,-0.65,-0.53,0.57,-5.13,-9.09,-3.72
1777399379086,2012866,-0.65,-0.54,0.56,-5.62,-7.87,-2.99
1777399379086,2012876,-0.65,-0.53,0.56,-4.94,-6.47,-2.14
1777399379086,2012886,-0.65,-0.52,0.56,-4.03,-4.64,-1.53
1777399379086,2012896,-0.66,-0.52,0.56,-3.30,-2.99,-1.34
1777399379086,2012906,-0.67,-0.51,0.56,-2.69,-2.44,-1.59
1777399379087,2012916,-0.67,-0.51,0.56,-2.14,-3.23,-4.09
1777399379087,2012936,-0.65,-0.51,0.53,-0.67,-3.48,-5.19
1777399379087,2012956,-0.63,-0.50,0.52,2.69,-0.92,-4.03
1777399379087,2012976,-0.63,-0.50,0.52,3.23,0.98,-4.21
1777399379087,2012996,-0.63,-0.52,0.52,4.70,0.73,-3.66
1777399379087,2013006,-0.63,-0.52,0.52,5.31,-0.73,-4.76
1777399379087,2013016,-0.62,-0.52,0.51,5.74,-2.20,-5.80
1777399379088,2013026,-0.61,-0.52,0.50,6.41,-2.93,-5.92
1777399379088,2013036,-0.61,-0.53,0.51,7.51,-2.81,-5.86
1777399379088,2013046,-0.61,-0.53,0.52,8.85,-2.38,-6.10
1777399379088,2013056,-0.62,-0.53,0.54,10.01,-2.01,-6.29
1777399379088,2013066,-0.63,-0.54,0.56,10.62,-2.26,-6.16
1777399379088,2013076,-0.63,-0.54,0.57,10.50,-3.48,-6.29
1777399379089,2013086,-0.63,-0.54,0.57,9.52,-4.46,-6.65
1777399379089,2013096,-0.63,-0.55,0.57,8.54,-4.52,-6.77
1777399379089,2013106,-0.63,-0.55,0.57,8.24,-3.78,-6.41
1777399379089,2013116,-0.63,-0.55,0.57,7.87,-3.17,-6.23
1777399379089,2013126,-0.62,-0.55,0.57,7.02,-2.87,-6.29
1777399379089,2013136,-0.62,-0.55,0.56,6.04,-2.75,-5.68
1777399379089,2013146,-0.61,-0.55,0.56,5.00,-2.62,-5.49
1777399379090,2013156,-0.61,-0.55,0.55,4.09,-2.38,-5.43
1777399379090,2013166,-0.61,-0.55,0.55,4.03,-2.50,-5.00
1777399379090,2013176,-0.62,-0.54,0.54,4.21,-2.44,-4.64
1777399379090,2013186,-0.62,-0.55,0.54,4.27,-2.56,-4.58
1777399379090,2013196,-0.62,-0.54,0.54,4.33,-2.93,-4.39
1777399379090,2013206,-0.63,-0.54,0.55,4.09,-3.54,-4.58
1777399379090,2013216,-0.63,-0.54,0.55,3.54,-4.09,-5.07
1777399379091,2013226,-0.63,-0.54,0.54,3.23,-4.64,-5.25
1777399379091,2013236,-0.63,-0.54,0.53,2.62,-4.94,-5.13
1777399379091,2013246,-0.63,-0.54,0.52,2.32,-4.09,-4.76
1777399379091,2013256,-0.63,-0.54,0.53,2.44,-2.38,-4.09
1777399379091,2013266,-0.64,-0.53,0.53,2.44,-0.85,-3.60
1777399379091,2013286,-0.64,-0.53,0.53,1.71,-1.77,-3.42
1777399379091,2013306,-0.65,-0.53,0.53,3.23,-3.42,-5.25
1777399379091,2013326,-0.65,-0.52,0.53,2.44,-4.52,-7.02
1777399379092,2013346,-0.64,-0.52,0.51,2.01,-3.91,-7.14
1777399379092,2013356,-0.64,-0.52,0.51,2.26,-2.56,-6.71
1777399379092,2013366,-0.64,-0.52,0.52,2.62,-1.34,-6.59
1777399379092,2013376,-0.64,-0.52,0.52,3.05,-1.40,-6.77
1777399379092,2013386,-0.64,-0.53,0.52,3.85,-2.14,-6.65
1777399379092,2013396,-0.64,-0.53,0.52,4.52,-3.23,-6.71
1777399379093,2013406,-0.64,-0.53,0.53,4.70,-4.21,-7.32
1777399379093,2013416,-0.63,-0.52,0.52,3.97,-5.49,-8.30
1777399379093,2013426,-0.63,-0.52,0.52,3.48,-6.23,-8.67
1777399379093,2013436,-0.62,-0.52,0.51,3.78,-6.65,-8.54
1777399379093,2013446,-0.62,-0.52,0.52,4.09,-6.35,-8.73
1777399379093,2013456,-0.62,-0.52,0.52,4.27,-6.10,-8.79
1777399379093,2013466,-0.62,-0.51,0.51,4.39,-5.55,-8.36
1777399379094,2013476,-0.62,-0.51,0.52,4.33,-4.94,-7.75
1777399379094,2013486,-0.63,-0.51,0.52,4.70,-4.52,-7.57
1777399379094,2013496,-0.65,-0.51,0.52,5.62,-5.13,-8.85
1777399379094,2013506,-0.66,-0.52,0.53,6.90,-6.90,-11.60
1777399379094,2013516,-0.66,-0.52,0.54,8.30,-10.25,-15.32
1777399379094,2013526,-0.66,-0.51,0.54,8.85,-15.08,-19.35
1777399379094,2013536,-0.64,-0.52,0.53,9.16,-20.87,-22.52
1777399379095,2013546,-0.64,-0.51,0.51,10.44,-26.12,-24.90
1777399379095,2013556,-0.62,-0.51,0.49,12.63,-29.66,-27.10
1777399379095,2013566,-0.61,-0.52,0.48,15.75,-30.46,-28.63
1777399379095,2013576,-0.60,-0.50,0.49,18.31,-29.05,-29.66
1777399379095,2013586,-0.60,-0.52,0.49,20.02,-27.28,-29.97
1777399379095,2013596,-0.60,-0.53,0.52,22.46,-25.15,-30.21
1777399379095,2013606,-0.60,-0.55,0.54,24.60,-23.56,-30.40
1777399379096,2013626,-0.60,-0.57,0.59,28.69,-24.54,-31.37
1777399379096,2013646,-0.62,-0.59,0.71,27.89,-26.49,-32.35
1777399379096,2013666,-0.60,-0.59,0.72,18.49,-29.79,-33.94
1777399379096,2013686,-0.55,-0.58,0.69,11.84,-24.29,-30.76
1777399379096,2013696,-0.54,-0.58,0.68,8.79,-16.36,-26.98
1777399379096,2013706,-0.53,-0.58,0.68,6.16,-5.68,-23.50
1777399379096,2013716,-0.54,-0.58,0.69,3.91,4.70,-20.26
1777399379097,2013726,-0.56,-0.59,0.72,2.26,12.27,-17.58
1777399379097,2013736,-0.56,-0.59,0.73,0.55,14.53,-16.30
1777399379097,2013746,-0.56,-0.59,0.72,-2.08,12.45,-16.30
1777399379097,2013756,-0.54,-0.58,0.68,-4.27,8.61,-16.24
1777399379097,2013766,-0.53,-0.58,0.65,-5.00,5.74,-15.38
1777399379097,2013776,-0.52,-0.57,0.63,-4.27,5.13,-13.98
1777399379097,2013786,-0.52,-0.56,0.62,-3.23,6.47,-12.88
1777399379097,2013796,-0.52,-0.56,0.62,-2.50,8.18,-11.96
1777399379098,2013806,-0.53,-0.55,0.61,-1.65,8.67,-10.93
1777399379098,2013816,-0.53,-0.54,0.61,-0.85,8.73,-9.83
1777399379098,2013826,-0.53,-0.54,0.61,-1.04,8.42,-9.16
1777399379098,2013836,-0.53,-0.54,0.60,-1.53,8.12,-8.61
1777399379098,2013846,-0.53,-0.53,0.59,-1.71,7.26,-7.93
1777399379098,2013856,-0.53,-0.53,0.57,-1.65,6.16,-7.26
1777399379098,2013866,-0.54,-0.53,0.56,-1.34,5.13,-7.14
1777399379098,2013876,-0.54,-0.53,0.55,-0.49,4.27,-7.14
1777399379099,2013886,-0.53,-0.53,0.55,0.31,3.91,-7.20
1777399379099,2013896,-0.53,-0.53,0.54,0.43,3.66,-6.84
1777399379099,2013906,-0.53,-0.54,0.53,0.73,3.23,-6.29
1777399379099,2013916,-0.53,-0.54,0.53,1.65,2.93,-6.10
1777399379099,2013926,-0.53,-0.55,0.53,2.81,2.56,-5.92
1777399379099,2013936,-0.53,-0.54,0.53,4.09,2.08,-5.25
1777399379099,2013946,-0.54,-0.54,0.53,5.07,1.71,-3.91
1777399379099,2013956,-0.54,-0.55,0.53,5.74,2.38,-1.71
1777399379100,2013976,-0.57,-0.55,0.54,8.06,5.31,-0.92
1777399379100,2013996,-0.61,-0.54,0.57,9.46,3.78,-4.15
1777399379100,2014016,-0.63,-0.54,0.57,10.07,4.15,-7.81
1777399379100,2014036,-0.62,-0.53,0.57,10.50,6.10,-9.16
1777399379100,2014046,-0.61,-0.53,0.56,10.19,6.41,-9.34
1777399379100,2014056,-0.61,-0.54,0.55,9.58,6.53,-9.77
1777399379100,2014066,-0.60,-0.54,0.55,9.40,6.16,-10.31
1777399379101,2014076,-0.59,-0.54,0.55,9.64,4.88,-10.74
1777399379101,2014086,-0.58,-0.54,0.53,10.44,3.05,-11.41
1777399379101,2014096,-0.57,-0.53,0.52,11.47,2.32,-12.70
1777399379101,2014106,-0.56,-0.53,0.50,12.70,2.56,-13.73
1777399379101,2014116,-0.56,-0.53,0.51,14.40,3.91,-14.47
1777399379101,2014126,-0.56,-0.54,0.52,16.42,4.27,-14.65
1777399379101,2014136,-0.56,-0.53,0.53,17.94,2.81,-14.47
1777399379102,2014146,-0.55,-0.53,0.53,18.19,0.43,-14.22
1777399379102,2014156,-0.54,-0.53,0.53,17.70,-1.77,-14.16
1777399379102,2014166,-0.55,-0.53,0.52,17.76,-3.23,-14.22
1777399379102,2014176,-0.55,-0.52,0.51,18.80,-3.91,-14.04
1777399379102,2014186,-0.55,-0.52,0.52,20.14,-3.72,-14.34
1777399379102,2014196,-0.56,-0.53,0.54,22.03,-3.60,-15.32
1777399379102,2014206,-0.56,-0.54,0.56,24.11,-5.25,-16.60
1777399379102,2014216,-0.56,-0.54,0.57,25.88,-8.48,-18.49
1777399379103,2014226,-0.57,-0.54,0.58,27.04,-11.84,-20.08
1777399379103,2014236,-0.56,-0.54,0.59,28.02,-15.56,-21.30
1777399379103,2014246,-0.56,-0.53,0.59,28.63,-18.68,-22.58
1777399379103,2014256,-0.55,-0.52,0.59,28.63,-20.45,-23.13
1777399379103,2014266,-0.55,-0.52,0.59,28.69,-20.87,-22.89
1777399379103,2014276,-0.55,-0.51,0.59,29.36,-20.51,-22.83
1777399379103,2014286,-0.54,-0.51,0.59,30.15,-19.59,-23.01
1777399379104,2014296,-0.54,-0.51,0.59,30.52,-18.37,-22.58
1777399379104,2014316,-0.54,-0.54,0.61,32.78,-18.68,-23.19
1777399379104,2014336,-0.53,-0.57,0.66,34.73,-24.05,-24.60
1777399379104,2014356,-0.50,-0.58,0.68,34.48,-28.87,-25.09
1777399379104,2014376,-0.49,-0.58,0.70,30.64,-28.75,-22.95
1777399379104,2014386,-0.49,-0.59,0.71,28.02,-27.10,-21.42
1777399379104,2014396,-0.49,-0.60,0.72,25.82,-25.70,-19.90
1777399379104,2014406,-0.48,-0.60,0.73,24.41,-24.48,-18.31
1777399379105,2014416,-0.48,-0.60,0.74,22.89,-22.89,-16.36
1777399379105,2014426,-0.47,-0.60,0.75,21.42,-20.69,-14.22
1777399379105,2014436,-0.48,-0.60,0.77,19.41,-18.07,-12.27
1777399379105,2014446,-0.49,-0.59,0.80,16.66,-15.81,-11.11
1777399379105,2014456,-0.49,-0.58,0.81,12.70,-15.38,-10.25
1777399379105,2014466,-0.48,-0.57,0.79,8.48,-15.50,-9.46
1777399379105,2014476,-0.46,-0.56,0.77,4.64,-14.71,-8.67
1777399379105,2014486,-0.46,-0.55,0.75,1.59,-11.84,-6.59
1777399379106,2014496,-0.46,-0.55,0.73,-0.85,-7.57,-4.09
1777399379106,2014506,-0.47,-0.54,0.73,-2.87,-2.99,-2.32
1777399379106,2014516,-0.48,-0.54,0.72,-4.15,0.31,-1.46
1777399379106,2014526,-0.48,-0.54,0.72,-4.58,1.83,-1.04
1777399379106,2014536,-0.49,-0.54,0.72,-4.39,2.08,-1.28
1777399379106,2014546,-0.50,-0.54,0.73,-4.09,0.98,-2.08
1777399379106,2014556,-0.50,-0.54,0.73,-4.15,-1.10,-3.85
1777399379106,2014566,-0.49,-0.53,0.72,-4.88,-3.30,-5.62
1777399379107,2014576,-0.48,-0.53,0.71,-5.92,-4.46,-6.65
1777399379107,2014586,-0.48,-0.53,0.69,-6.10,-4.33,-6.77
1777399379107,2014596,-0.48,-0.53,0.70,-5.80,-2.44,-6.71
1777399379107,2014606,-0.48,-0.53,0.71,-5.68,-0.43,-6.84
1777399379107,2014616,-0.49,-0.53,0.73,-6.16,-0.06,-7.02
1777399379107,2014626,-0.49,-0.53,0.72,-7.08,-0.73,-7.45
1777399379107,2014636,-0.49,-0.53,0.72,-8.61,-1.34,-7.75
1777399379107,2014646,-0.50,-0.53,0.72,-9.70,-2.26,-9.16
1777399379108,2014666,-0.50,-0.55,0.72,-9.58,-3.23,-11.11
1777399379108,2014686,-0.45,-0.55,0.68,-12.57,-4.03,-11.11
1777399379108,2014706,-0.47,-0.56,0.67,-11.54,-0.31,-8.85
1777399379108,2014726,-0.50,-0.57,0.71,-10.01,-1.16,-9.22
1777399379108,2014736,-0.50,-0.56,0.73,-10.62,-2.87,-10.56
1777399379108,2014746,-0.49,-0.58,0.73,-13.06,-4.46,-11.29
1777399379108,2014756,-0.47,-0.58,0.71,-15.38,-5.13,-10.74
1777399379108,2014766,-0.47,-0.60,0.70,-17.21,-3.78,-9.77
1777399379109,2014776,-0.46,-0.59,0.67,-18.55,-1.10,-8.48
1777399379109,2014786,-0.47,-0.59,0.68,-18.01,2.75,-7.02
1777399379109,2014796,-0.47,-0.60,0.68,-18.86,5.00,-5.98
1777399379109,2014806,-0.46,-0.59,0.67,-19.71,5.98,-5.19
1777399379109,2014816,-0.47,-0.59,0.66,-20.02,7.51,-3.91
1777399379109,2014826,-0.48,-0.59,0.66,-19.65,9.22,-2.50
1777399379109,2014836,-0.49,-0.57,0.69,-19.41,11.29,-1.53
1777399379109,2014846,-0.52,-0.59,0.72,-22.58,12.08,-0.98
1777399379110,2014856,-0.52,-0.62,0.71,-27.77,11.29,-1.10
1777399379110,2014866,-0.52,-0.63,0.70,-30.76,10.13,-1.34
1777399379110,2014876,-0.52,-0.63,0.69,-32.17,9.83,-1.22
1777399379110,2014886,-0.51,-0.63,0.67,-34.06,10.31,-0.85
1777399379110,2014896,-0.50,-0.64,0.64,-35.83,11.66,-0.55
1777399379110,2014906,-0.50,-0.64,0.63,-36.62,13.06,0.18
1777399379110,2014916,-0.51,-0.64,0.62,-37.78,12.94,0.92
1777399379111,2014926,-0.52,-0.64,0.61,-37.41,12.45,1.34
1777399379111,2014936,-0.53,-0.62,0.63,-37.41,11.90,1.34
1777399379111,2014946,-0.54,-0.64,0.64,-40.83,10.93,1.34
1777399379111,2014956,-0.54,-0.65,0.63,-45.41,10.19,1.59
1777399379111,2014966,-0.54,-0.65,0.62,-50.23,10.62,3.23
1777399379111,2014976,-0.54,-0.69,0.59,-54.14,12.70,5.49
1777399379111,2014986,-0.55,-0.70,0.56,-55.18,17.27,7.14
1777399379111,2015006,-0.56,-0.70,0.53,-51.88,36.93,11.05
1777399379112,2015026,-0.58,-0.65,0.47,-52.92,49.80,12.15
1777399379112,2015046,-0.61,-0.62,0.46,-51.27,56.64,10.19
1777399379112,2015066,-0.63,-0.65,0.45,-51.94,53.65,8.54
1777399379112,2015076,-0.63,-0.67,0.45,-52.43,51.09,8.06
1777399379112,2015086,-0.62,-0.68,0.42,-52.49,48.58,7.26
1777399379112,2015096,-0.63,-0.67,0.40,-51.15,47.42,6.53
1777399379112,2015106,-0.62,-0.69,0.38,-49.01,48.77,6.47
1777399379112,2015116,-0.63,-0.70,0.36,-46.51,51.57,6.53
1777399379113,2015126,-0.64,-0.68,0.36,-43.52,55.11,6.53
1777399379113,2015136,-0.63,-0.70,0.33,-41.44,60.24,5.98
1777399379113,2015146,-0.65,-0.69,0.32,-39.43,67.44,5.07
1777399379113,2015156,-0.64,-0.67,0.32,-38.21,73.67,5.43
1777399379113,2015166,-0.66,-0.68,0.31,-39.67,78.06,5.86
1777399379113,2015176,-0.69,-0.68,0.32,-41.14,80.08,6.35
1777399379113,2015186,-0.68,-0.69,0.29,-40.83,80.32,6.41
1777399379113,2015196,-0.68,-0.69,0.28,-41.63,81.91,5.98
1777399379114,2015206,-0.66,-0.68,0.25,-43.82,83.50,7.14
1777399379114,2015216,-0.65,-0.66,0.21,-45.59,85.33,9.58
1777399379114,2015226,-0.64,-0.65,0.17,-46.39,87.22,13.00
1777399379114,2015236,-0.64,-0.65,0.14,-45.78,89.29,16.11
1777399379114,2015246,-0.66,-0.64,0.11,-42.42,90.88,17.40
1777399379114,2015256,-0.68,-0.64,0.09,-37.54,93.14,17.21
1777399379114,2015266,-0.70,-0.62,0.13,-34.30,95.28,13.67
1777399379114,2015276,-0.70,-0.62,0.14,-36.19,90.52,8.85
1777399379115,2015286,-0.68,-0.63,0.12,-39.49,79.96,5.37
1777399379115,2015296,-0.65,-0.62,0.07,-42.05,67.57,2.75
1777399379115,2015306,-0.63,-0.61,0.02,-42.79,56.58,0.67
1777399379115,2015316,-0.60,-0.60,-0.01,-40.83,48.95,0.85
1777399379115,2015326,-0.59,-0.60,-0.04,-37.29,43.52,2.50
1777399379115,2015336,-0.59,-0.58,-0.05,-32.96,40.10,5.55
1777399379115,2015356,-0.58,-0.57,-0.06,-23.07,38.39,5.80
1777399379115,2015376,-0.62,-0.57,-0.05,-22.52,34.73,6.59
1777399379115,2015396,-0.61,-0.58,-0.08,-24.54,22.95,8.85
1777399379116,2015416,-0.64,-0.59,-0.12,-23.07,12.57,11.72
1777399379116,2015426,-0.64,-0.59,-0.14,-20.63,9.34,11.54
1777399379116,2015436,-0.65,-0.60,-0.16,-16.42,7.87,10.56
1777399379116,2015446,-0.67,-0.60,-0.16,-10.56,7.63,9.34
1777399379116,2015456,-0.69,-0.60,-0.14,-4.21,7.51,7.57
1777399379116,2015466,-0.72,-0.60,-0.10,1.46,5.74,5.74
1777399379116,2015476,-0.76,-0.60,-0.06,4.46,1.10,3.36
1777399379116,2015486,-0.78,-0.60,-0.05,3.60,-6.10,-0.49
1777399379117,2015496,-0.78,-0.61,-0.08,0.98,-13.67,-3.60
1777399379117,2015506,-0.77,-0.63,-0.11,-0.18,-18.01,-5.19
1777399379117,2015516,-0.76,-0.63,-0.12,0.24,-18.49,-5.92
1777399379117,2015526,-0.76,-0.63,-0.11,1.65,-16.36,-5.31
1777399379117,2015536,-0.76,-0.64,-0.11,2.62,-13.73,-4.15
1777399379117,2015546,-0.77,-0.65,-0.10,4.21,-10.80,-3.60
1777399379117,2015556,-0.78,-0.65,-0.10,6.71,-7.75,-4.27
1777399379117,2015566,-0.78,-0.65,-0.08,9.03,-5.98,-5.00
1777399379118,2015576,-0.77,-0.64,-0.07,9.89,-5.74,-5.92
1777399379118,2015586,-0.76,-0.64,-0.06,9.03,-6.84,-6.71
1777399379118,2015596,-0.75,-0.64,-0.07,7.14,-8.54,-6.77
1777399379118,2015606,-0.75,-0.64,-0.08,5.37,-9.46,-6.29
1777399379118,2015616,-0.75,-0.64,-0.08,4.70,-9.09,-6.23
1777399379118,2015626,-0.74,-0.63,-0.09,4.33,-8.24,-6.16
1777399379118,2015636,-0.75,-0.64,-0.09,4.52,-7.69,-5.25
1777399379118,2015646,-0.75,-0.64,-0.08,5.37,-6.59,-4.94
1777399379119,2015656,-0.74,-0.64,-0.07,5.92,-5.68,-4.88
1777399379119,2015666,-0.74,-0.63,-0.07,5.43,-6.10,-4.46
1777399379119,2015676,-0.75,-0.64,-0.07,4.76,-7.20,-4.09
1777399379119,2015696,-0.73,-0.62,-0.07,4.03,-9.83,-5.19
1777399379119,2015716,-0.73,-0.62,-0.08,4.33,-7.57,-4.94
1777399379119,2015736,-0.72,-0.62,-0.08,4.52,-6.96,-3.11
1777399379120,2015756,-0.73,-0.63,-0.08,5.13,-7.69,-2.08
1777399379120,2015766,-0.75,-0.63,-0.08,6.59,-8.18,-1.34
1777399379120,2015776,-0.76,-0.63,-0.07,8.30,-8.18,-1.40
1777399379120,2015786,-0.76,-0.63,-0.06,9.09,-8.91,-2.62
1777399379120,2015796,-0.76,-0.63,-0.07,8.54,-10.01,-3.91
1777399379120,2015806,-0.77,-0.62,-0.07,8.61,-10.01,-4.03
1777399379120,2015816,-0.78,-0.62,-0.06,8.48,-8.79,-3.91
1777399379121,2015826,-0.79,-0.63,-0.06,7.87,-7.32,-3.78
1777399379121,2015836,-0.79,-0.63,-0.07,7.26,-6.47,-3.91
1777399379121,2015846,-0.79,-0.65,-0.08,7.02,-5.98,-4.58
1777399379121,2015856,-0.79,-0.65,-0.07,8.42,-5.25,-5.55
1777399379121,2015866,-0.79,-0.64,-0.05,10.07,-5.62,-6.29
1777399379121,2015876,-0.78,-0.64,-0.04,9.83,-7.51,-7.20
1777399379121,2015886,-0.77,-0.64,-0.05,8.85,-9.58,-8.48
1777399379121,2015896,-0.76,-0.64,-0.06,8.48,-10.44,-9.77
1777399379121,2015906,-0.75,-0.63,-0.07,9.40,-9.83,-10.25
1777399379122,2015916,-0.74,-0.63,-0.06,10.56,-8.06,-10.01
1777399379122,2015926,-0.74,-0.63,-0.04,10.44,-5.55,-9.40
1777399379122,2015936,-0.75,-0.64,-0.03,8.73,-4.21,-8.30
1777399379122,2015946,-0.75,-0.65,-0.03,6.96,-3.42,-6.90
1777399379122,2015956,-0.76,-0.65,-0.03,6.10,-2.56,-5.98
1777399379122,2015966,-0.76,-0.65,-0.03,5.98,-2.01,-5.74
1777399379122,2015976,-0.77,-0.65,-0.03,6.29,-1.89,-5.74
1777399379122,2015986,-0.77,-0.65,-0.03,6.41,-1.83,-5.86
1777399379123,2015996,-0.77,-0.65,-0.03,6.41,-2.01,-6.47
1777399379123,2016006,-0.76,-0.65,-0.03,6.47,-2.14,-7.32
1777399379123,2016016,-0.75,-0.65,-0.03,6.35,-2.20,-8.18
1777399379123,2016026,-0.74,-0.65,-0.03,5.62,-3.11,-7.87
1777399379123,2016046,-0.73,-0.65,-0.03,3.60,-2.81,-7.51
1777399379123,2016066,-0.73,-0.64,-0.03,3.05,-0.55,-5.49
1777399379123,2016086,-0.74,-0.65,-0.04,1.59,0.37,-4.09
1777399379123,2016106,-0.75,-0.66,-0.04,2.38,-0.43,-4.94
1777399379123,2016116,-0.75,-0.66,-0.03,2.69,-2.01,-6.29
1777399379124,2016126,-0.75,-0.65,-0.04,2.50,-4.46,-7.26
1777399379124,2016136,-0.75,-0.65,-0.04,2.08,-6.47,-7.93
1777399379124,2016146,-0.74,-0.64,-0.04,1.28,-7.45,-8.48
1777399379124,2016156,-0.73,-0.64,-0.06,0.61,-7.02,-8.73
1777399379124,2016166,-0.72,-0.63,-0.07,0.61,-4.64,-8.12
1777399379124,2016176,-0.72,-0.63,-0.07,0.92,-1.46,-7.20
1777399379124,2016186,-0.72,-0.63,-0.06,1.22,0.73,-6.35
1777399379124,2016196,-0.73,-0.63,-0.05,1.71,0.98,-5.07
1777399379124,2016206,-0.74,-0.64,-0.05,2.01,-0.67,-4.70
1777399379125,2016216,-0.74,-0.64,-0.06,2.44,-3.36,-5.19
1777399379125,2016226,-0.74,-0.64,-0.07,3.54,-5.43,-6.47
1777399379125,2016236,-0.74,-0.64,-0.07,4.09,-6.47,-7.87
1777399379125,2016246,-0.73,-0.63,-0.06,4.21,-7.02,-8.61
1777399379125,2016256,-0.73,-0.63,-0.06,4.03,-7.14,-8.42
1777399379125,2016266,-0.72,-0.64,-0.06,3.85,-6.96,-7.93
1777399379125,2016276,-0.72,-0.64,-0.06,3.97,-5.80,-7.39
1777399379125,2016286,-0.72,-0.64,-0.06,4.03,-4.33,-6.29
1777399379125,2016296,-0.73,-0.64,-0.04,3.48,-2.99,-4.94
1777399379126,2016306,-0.74,-0.65,-0.04,2.20,-2.69,-3.91
1777399379126,2016316,-0.75,-0.65,-0.04,1.46,-3.42,-3.54
1777399379126,2016326,-0.76,-0.65,-0.05,1.46,-3.91,-3.97
1777399379126,2016336,-0.76,-0.65,-0.06,1.95,-3.97,-5.19
1777399379126,2016346,-0.75,-0.65,-0.07,2.93,-3.72,-6.16
1777399379126,2016356,-0.75,-0.64,-0.06,3.97,-3.54,-6.90
1777399379126,2016366,-0.75,-0.64,-0.05,4.52,-3.42,-7.51
1777399379126,2016376,-0.76,-0.64,-0.04,4.39,-3.48,-7.63
1777399379126,2016396,-0.76,-0.65,-0.05,2.62,-3.54,-7.39
1777399379127,2016416,-0.77,-0.66,-0.04,2.87,-0.67,-6.29
1777399379127,2016436,-0.76,-0.66,-0.06,1.46,1.71,-6.65
1777399379127,2016446,-0.75,-0.65,-0.06,1.83,4.03,-6.23
1777399379127,2016456,-0.75,-0.64,-0.06,2.50,6.90,-5.31
1777399379127,2016466,-0.74,-0.64,-0.06,2.32,10.31,-4.33
1777399379127,2016476,-0.75,-0.64,-0.07,1.83,13.37,-3.30
1777399379127,2016486,-0.75,-0.65,-0.06,2.14,15.93,-2.01
1777399379127,2016496,-0.76,-0.65,-0.06,2.38,17.33,-1.04
1777399379128,2016506,-0.76,-0.65,-0.06,1.95,17.64,-0.92
1777399379128,2016516,-0.76,-0.66,-0.06,1.65,17.03,-1.10
1777399379128,2016526,-0.78,-0.66,-0.06,1.46,15.75,-1.71
1777399379128,2016536,-0.78,-0.67,-0.06,1.77,14.04,-2.99
1777399379128,2016546,-0.79,-0.66,-0.05,1.22,12.45,-4.82
1777399379128,2016556,-0.80,-0.66,-0.05,0.49,10.68,-6.47
1777399379128,2016566,-0.80,-0.67,-0.06,-0.37,9.64,-7.39
1777399379128,2016576,-0.81,-0.68,-0.07,-0.85,10.68,-8.06
1777399379128,2016586,-0.82,-0.68,-0.07,0.00,13.31,-8.18
1777399379129,2016596,-0.83,-0.69,-0.06,1.28,17.09,-8.36
1777399379129,2016606,-0.84,-0.69,-0.04,1.40,20.51,-8.12
1777399379129,2016616,-0.85,-0.70,-0.03,0.24,21.67,-7.45
1777399379129,2016626,-0.84,-0.70,-0.03,-1.95,20.51,-8.24
1777399379129,2016636,-0.82,-0.71,-0.04,-4.94,17.03,-10.38
1777399379129,2016646,-0.81,-0.70,-0.08,-6.90,10.80,-12.27
1777399379129,2016656,-0.80,-0.70,-0.12,-6.35,4.15,-14.34
1777399379129,2016666,-0.73,-0.69,-0.16,-4.39,-0.55,-17.33
1777399379129,2016676,-0.71,-0.67,-0.17,-1.40,-1.46,-19.65
1777399379130,2016686,-0.67,-0.64,-0.19,1.65,-0.18,-19.47
1777399379130,2016696,-0.64,-0.62,-0.19,3.36,3.05,-17.27
1777399379130,2016706,-0.63,-0.63,-0.20,4.46,8.00,-13.49
1777399379130,2016716,-0.63,-0.62,-0.18,6.04,13.24,-5.13
1777399379130,2016736,-0.64,-0.62,-0.16,-0.67,18.86,-3.66
1777399379130,2016756,-0.65,-0.62,-0.16,-4.88,14.34,-6.16
1777399379130,2016776,-0.65,-0.62,-0.18,-3.42,7.51,-9.09
1777399379130,2016796,-0.64,-0.62,-0.19,-2.87,6.04,-9.58
1777399379131,2016806,-0.63,-0.62,-0.20,-1.16,7.26,-7.69
1777399379131,2016816,-0.64,-0.63,-0.19,1.04,8.97,-4.39
1777399379131,2016826,-0.65,-0.63,-0.17,2.62,10.31,-1.22
1777399379131,2016836,-0.67,-0.62,-0.16,2.50,11.72,0.00
1777399379131,2016846,-0.68,-0.63,-0.15,0.73,12.88,-0.24
1777399379131,2016856,-0.68,-0.63,-0.14,-1.89,13.00,-0.73
1777399379131,2016866,-0.68,-0.64,-0.15,-4.70,11.47,-1.34
1777399379131,2016876,-0.68,-0.64,-0.17,-5.25,8.67,-1.59
1777399379131,2016886,-0.69,-0.64,-0.17,-4.21,5.98,-1.95
1777399379132,2016896,-0.70,-0.64,-0.18,-2.99,3.66,-2.75
1777399379132,2016906,-0.70,-0.64,-0.19,-2.38,0.79,-3.60
1777399379132,2016916,-0.70,-0.64,-0.20,-1.46,-1.83,-4.76
1777399379132,2016926,-0.70,-0.64,-0.20,-0.61,-3.85,-5.43
1777399379132,2016936,-0.70,-0.64,-0.20,-0.12,-5.86,-5.49
1777399379132,2016946,-0.70,-0.64,-0.21,0.37,-7.14,-5.80
1777399379132,2016956,-0.70,-0.64,-0.21,1.40,-7.20,-5.49
1777399379132,2016966,-0.71,-0.64,-0.20,2.38,-5.98,-4.70
1777399379133,2016976,-0.71,-0.64,-0.20,2.26,-4.70,-4.33
1777399379133,2016986,-0.71,-0.63,-0.19,1.59,-3.66,-3.91
1777399379133,2016996,-0.71,-0.64,-0.19,1.22,-2.81,-3.42
1777399379133,2017006,-0.72,-0.64,-0.19,1.28,-1.83,-2.87
1777399379133,2017016,-0.72,-0.64,-0.19,1.40,-1.28,-2.56
1777399379133,2017026,-0.73,-0.64,-0.18,1.83,-1.71,-2.69
1777399379133,2017036,-0.74,-0.64,-0.18,2.08,-2.75,-3.17
1777399379133,2017046,-0.74,-0.64,-0.18,2.32,-4.33,-3.78
1777399379133,2017056,-0.73,-0.64,-0.18,2.08,-6.10,-4.03
1777399379133,2017066,-0.72,-0.64,-0.19,1.71,-7.32,-4.15
1777399379134,2017086,-0.73,-0.64,-0.19,2.87,-7.08,-4.70
1777399379134,2017106,-0.73,-0.64,-0.18,2.81,-8.48,-4.76
1777399379134,2017126,-0.73,-0.65,-0.19,1.89,-7.51,-4.09
1777399379134,2017136,-0.73,-0.65,-0.19,1.95,-5.55,-4.27
1777399379134,2017146,-0.73,-0.65,-0.19,2.08,-3.36,-4.21
1777399379134,2017156,-0.73,-0.65,-0.18,2.01,-2.32,-4.15
1777399379134,2017166,-0.73,-0.65,-0.18,1.40,-2.75,-4.64
1777399379134,2017176,-0.72,-0.64,-0.19,0.73,-3.66,-5.13
1777399379134,2017186,-0.72,-0.64,-0.19,0.55,-4.21,-5.13
1777399379134,2017196,-0.72,-0.64,-0.19,0.92,-4.15,-4.88
1777399379135,2017206,-0.73,-0.64,-0.19,1.28,-4.39,-4.70
1777399379135,2017216,-0.73,-0.65,-0.20,1.65,-5.37,-4.70
1777399379135,2017226,-0.72,-0.64,-0.20,2.20,-5.74,-5.43
1777399379135,2017236,-0.71,-0.64,-0.19,2.38,-6.16,-5.49
1777399379135,2017246,-0.71,-0.64,-0.19,2.38,-6.59,-5.19
1777399379135,2017256,-0.72,-0.64,-0.19,2.62,-6.41,-5.55
1777399379135,2017266,-0.72,-0.64,-0.18,2.81,-5.92,-6.41
1777399379135,2017276,-0.72,-0.64,-0.18,2.50,-6.10,-6.65
1777399379135,2017286,-0.72,-0.64,-0.17,2.32,-6.47,-5.98
1777399379135,2017296,-0.73,-0.63,-0.17,1.95,-6.41,-5.19
1777399379136,2017306,-0.74,-0.63,-0.17,1.28,-6.04,-4.76
1777399379136,2017316,-0.74,-0.63,-0.17,0.18,-5.55,-4.39
1777399379136,2017326,-0.74,-0.62,-0.18,-0.85,-5.00,-4.27
1777399379136,2017336,-0.75,-0.62,-0.18,-1.22,-4.09,-4.64
1777399379136,2017346,-0.74,-0.61,-0.19,-1.53,-2.56,-5.49
1777399379136,2017356,-0.73,-0.61,-0.19,-2.08,-1.22,-5.92
1777399379136,2017366,-0.72,-0.61,-0.21,-2.50,0.12,-5.74
1777399379136,2017376,-0.72,-0.62,-0.21,-2.56,1.16,-5.68
1777399379136,2017386,-0.72,-0.62,-0.21,-2.08,1.28,-6.04
1777399379136,2017396,-0.70,-0.62,-0.22,-2.01,0.00,-5.80
1777399379136,2017406,-0.72,-0.64,-0.23,-2.01,-1.71,-4.09
1777399379137,2017426,-0.71,-0.62,-0.25,3.91,-0.61,0.06
1777399379144,2017446,-0.75,-0.56,-0.27,9.28,4.27,3.85
1777399379164,2017466,-0.80,-0.53,-0.25,17.40,12.63,8.06
1777399379184,2017486,-0.78,-0.47,-0.23,21.73,16.60,12.70
1777399379194,2017496,-0.76,-0.42,-0.23,21.00,16.78,13.79
1777399379204,2017506,-0.74,-0.44,-0.24,18.86,16.42,14.34
1777399379214,2017516,-0.71,-0.40,-0.24,18.55,12.51,12.88
1777399379224,2017526,-0.65,-0.39,-0.28,20.69,4.27,9.70
1777399379234,2017536,-0.56,-0.35,-0.31,27.04,-5.19,5.13
1777399379244,2017546,-0.49,-0.33,-0.32,36.25,-16.36,1.83
1777399379254,2017556,-0.43,-0.28,-0.31,47.85,-30.70,-0.55
1777399379264,2017566,-0.36,-0.24,-0.32,61.34,-50.72,-5.19
1777399379274,2017576,-0.27,-0.19,-0.26,74.65,-72.75,-11.84
1777399379284,2017586,-0.24,-0.11,-0.20,85.82,-97.17,-18.07
1777399379294,2017596,-0.19,-0.09,-0.19,92.53,-123.05,-23.56
1777399379304,2017606,-0.16,-0.03,-0.17,98.08,-146.61,-30.09
1777399379314,2017616,-0.12,0.01,-0.14,101.99,-167.24,-37.41
1777399379324,2017626,-0.08,0.06,-0.13,102.97,-186.10,-46.51
1777399379334,2017636,-0.05,0.09,-0.13,103.58,-201.66,-56.52
1777399379344,2017646,0.01,0.13,-0.19,110.66,-214.97,-65.25
1777399379354,2017656,0.06,0.20,-0.19,126.65,-219.48,-74.28
1777399379364,2017666,0.09,0.25,-0.11,146.79,-214.17,-84.29
1777399379375,2017676,-0.05,0.22,0.20,167.66,-207.52,-91.92
1777399379384,2017686,-0.26,0.07,0.55,185.49,-219.06,-104.19
1777399379397,2017696,-0.35,-0.13,0.77,197.08,-251.46,-130.31
1777399379405,2017706,-0.26,-0.37,1.05,203.06,-270.51,-159.97
1777399379414,2017716,-0.09,-0.98,1.26,190.86,-256.04,-173.16
1777399379424,2017726,-0.02,-2.19,1.34,157.84,-210.45,-168.21
1777399379434,2017736,-0.08,-3.94,1.15,119.93,-168.21,-162.72
1777399379446,2017746,-0.50,-4.00,1.19,108.83,-165.47,-179.63
1777399379454,2017756,-0.74,-4.00,1.64,138.49,-271.30,-311.10
1777399379474,2017776,0.57,-4.00,3.91,-45.90,-275.45,-206.97
1777399379500,2017796,-0.36,-4.00,4.00,-553.83,-8.91,190.92
1777399379514,2017816,-1.05,-1.53,2.55,-902.95,99.79,282.10
1777399379524,2017826,-0.82,-0.62,2.01,-923.77,97.17,230.04
1777399379534,2017836,-0.53,-0.10,1.32,-859.74,20.69,163.51
1777399379544,2017846,0.31,-0.01,0.57,-713.99,-42.42,74.16
1777399379555,2017856,0.93,0.37,1.05,-520.32,-22.16,-49.93
1777399379564,2017866,1.02,0.62,1.79,-338.99,-44.86,-151.18
1777399379574,2017876,0.85,1.23,2.48,-190.31,-145.20,-208.07
1777399379584,2017886,1.12,1.77,2.72,-96.50,-230.59,-206.85
1777399379595,2017896,0.91,2.11,3.34,-76.42,-203.37,-143.25
1777399379604,2017906,0.39,1.98,3.69,-127.75,-133.30,-52.55
1777399379614,2017916,-0.13,1.56,3.47,-199.16,-88.50,28.26
1777399379624,2017926,-0.60,1.31,2.66,-246.09,-74.95,63.29
1777399379634,2017936,-0.75,1.21,1.77,-258.97,-70.80,57.07
1777399379644,2017946,-0.78,1.29,0.93,-246.09,-68.18,43.21
1777399379654,2017956,-0.75,1.33,0.27,-221.56,-61.83,40.59
1777399379664,2017966,-0.74,1.20,-0.11,-192.02,-50.35,41.50
1777399379674,2017976,-0.67,1.01,-0.32,-152.04,-48.03,32.65
1777399379684,2017986,-0.48,0.82,-0.44,-102.91,-54.32,21.12
1777399379694,2017996,-0.34,0.66,-0.41,-51.94,-47.00,16.24
1777399379704,2018006,-0.26,0.43,-0.35,-6.41,-25.33,22.58
1777399379714,2018016,-0.29,0.25,-0.17,29.72,1.10,35.89
1777399379724,2018026,-0.43,0.06,-0.05,44.13,13.92,49.01
1777399379734,2018036,-0.54,-0.15,-0.06,37.66,8.42,51.03
1777399379744,2018046,-0.63,-0.26,-0.16,27.59,-8.73,40.04
1777399379754,2018056,-0.63,-0.36,-0.35,21.55,-25.45,26.43
1777399379764,2018066,-0.61,-0.42,-0.48,24.41,-29.97,16.36
1777399379774,2018076,-0.61,-0.45,-0.53,36.32,-21.67,11.54
1777399379784,2018086,-0.62,-0.46,-0.47,52.19,-7.08,11.05
1777399379794,2018096,-0.61,-0.48,-0.43,63.60,3.30,10.93
1777399379814,2018116,-0.40,-0.59,-0.53,88.01,-1.59,-2.20
1777399379834,2018136,-0.27,-0.71,-0.40,99.61,-1.34,11.35
1777399379854,2018156,-0.53,-0.79,-0.26,98.94,-1.77,29.66
1777399379874,2018176,-0.72,-0.82,-0.10,97.60,-5.43,27.22
1777399379884,2018186,-0.67,-0.91,-0.20,90.09,-9.95,24.54
1777399379894,2018196,-0.61,-0.86,-0.33,82.58,-7.26,18.68
1777399379904,2018206,-0.50,-0.89,-0.37,81.24,1.65,18.98
1777399379914,2018216,-0.51,-1.03,-0.29,91.86,11.23,22.83
1777399379924,2018226,-0.55,-0.92,-0.29,107.67,13.24,20.20
1777399379934,2018236,-0.50,-0.92,-0.30,114.93,10.93,16.48
1777399379944,2018246,-0.45,-0.88,-0.27,121.09,16.91,16.24
1777399379954,2018256,-0.45,-0.85,-0.16,125.06,27.65,20.63
1777399379964,2018266,-0.45,-0.78,-0.03,122.13,30.33,23.38
1777399379974,2018276,-0.41,-0.76,-0.00,112.18,21.48,22.28
1777399379984,2018286,-0.32,-0.71,-0.03,102.78,6.16,18.74
1777399379994,2018296,-0.20,-0.64,-0.08,96.74,-8.54,17.40
1777399380004,2018306,-0.10,-0.58,-0.16,89.90,-17.94,20.81
1777399380015,2018316,-0.03,-0.58,-0.28,88.62,-19.59,30.82
1777399380024,2018326,-0.02,-0.55,-0.33,98.82,-9.89,47.97
1777399380034,2018336,-0.10,-0.53,-0.36,114.01,6.16,71.41
1777399380044,2018346,-0.21,-0.57,-0.42,128.11,25.76,98.75
1777399380054,2018356,-0.37,-0.61,-0.37,143.92,53.41,125.85
