host_time_ms,arduino_time_ms,ax,ay,az,gx,gy,gz
1777399371332,2005686,-0.52,-0.85,-0.15,70.86,-86.73,-45.10
1777399371333,2005706,-0.33,-0.68,-0.13,59.75,-35.46,-34.91
1777399371333,2005726,-0.31,-0.74,-0.14,38.45,1.89,-11.96
1777399371333,2005736,-0.31,-0.75,-0.15,35.16,5.07,-4.76
1777399371334,2005746,-0.32,-0.81,-0.18,36.38,-2.69,-0.92
1777399371334,2005756,-0.33,-0.88,-0.24,39.92,-16.91,0.31
1777399371334,2005766,-0.36,-0.90,-0.28,48.22,-29.60,2.01
1777399371334,2005776,-0.43,-0.94,-0.25,58.11,-37.72,5.92
1777399371335,2005786,-0.53,-0.94,-0.17,64.88,-44.31,8.73
1777399371335,2005796,-0.60,-0.95,-0.11,65.31,-51.51,8.97
1777399371335,2005806,-0.64,-0.96,-0.08,62.68,-55.66,6.71
1777399371335,2005816,-0.62,-0.98,-0.07,59.88,-52.55,1.77
1777399371336,2005826,-0.57,-1.01,-0.04,57.19,-39.37,-3.30
1777399371336,2005836,-0.53,-1.02,0.02,54.08,-22.03,-3.30
1777399371337,2005846,-0.52,-1.05,0.06,47.79,-10.68,1.16
1777399371337,2005856,-0.54,-1.08,0.02,38.88,-7.39,5.98
1777399371338,2005866,-0.58,-1.11,-0.05,30.94,-6.47,10.93
1777399371338,2005876,-0.64,-1.11,-0.08,26.37,-3.97,13.79
1777399371338,2005886,-0.69,-1.12,-0.12,23.13,-3.05,11.96
1777399371339,2005896,-0.69,-1.11,-0.14,21.91,-3.17,6.47
1777399371339,2005906,-0.68,-1.10,-0.15,23.07,-2.93,1.22
1777399371339,2005916,-0.67,-1.06,-0.10,25.33,-1.04,-2.32
1777399371340,2005926,-0.65,-1.03,-0.05,23.93,-0.31,-5.13
1777399371340,2005936,-0.61,-1.00,-0.03,19.53,-1.10,-7.08
1777399371340,2005946,-0.56,-0.97,-0.01,15.56,-0.61,-7.51
1777399371340,2005956,-0.53,-0.94,0.01,12.88,1.65,-5.37
1777399371341,2005966,-0.53,-0.90,0.05,9.70,3.72,-2.44
1777399371341,2005976,-0.53,-0.87,0.06,5.55,3.36,-0.49
1777399371341,2005986,-0.54,-0.83,0.04,2.44,1.89,-0.18
1777399371341,2005996,-0.55,-0.81,0.01,0.85,1.28,-0.85
1777399371342,2006006,-0.57,-0.80,0.01,0.98,2.26,-1.83
1777399371342,2006026,-0.59,-0.79,0.02,2.44,-8.54,-5.19
1777399371342,2006046,-0.56,-0.77,0.03,4.33,-14.47,-7.45
1777399371342,2006066,-0.49,-0.76,0.01,6.96,-15.93,-8.42
1777399371342,2006086,-0.50,-0.77,-0.00,10.25,-12.39,-6.59
1777399371343,2006096,-0.51,-0.77,-0.01,11.23,-10.25,-5.98
1777399371343,2006106,-0.51,-0.77,-0.03,12.02,-7.63,-5.68
1777399371343,2006116,-0.49,-0.77,-0.04,12.76,-4.70,-4.70
1777399371344,2006126,-0.49,-0.75,-0.03,14.04,-2.01,-3.11
1777399371344,2006136,-0.50,-0.76,-0.01,15.63,-0.43,-1.16
1777399371344,2006146,-0.50,-0.76,0.02,17.76,-1.46,0.24
1777399371344,2006156,-0.50,-0.75,0.06,19.41,-5.86,-0.12
1777399371345,2006166,-0.48,-0.74,0.08,18.98,-13.49,-1.10
1777399371345,2006176,-0.47,-0.74,0.06,16.66,-21.61,-0.85
1777399371345,2006186,-0.45,-0.75,0.03,14.95,-26.73,0.31
1777399371345,2006196,-0.44,-0.75,0.03,15.99,-27.77,1.10
1777399371346,2006206,-0.43,-0.76,0.05,18.25,-27.04,2.69
1777399371346,2006216,-0.45,-0.74,0.06,21.12,-26.98,5.62
1777399371346,2006226,-0.47,-0.73,0.05,23.19,-26.25,7.69
1777399371346,2006236,-0.49,-0.73,0.05,23.50,-22.64,8.67
1777399371347,2006246,-0.50,-0.74,0.04,23.38,-16.91,11.78
1777399371347,2006256,-0.52,-0.74,0.05,23.32,-10.86,16.17
1777399371347,2006266,-0.56,-0.75,0.08,23.99,-6.16,19.23
1777399371347,2006276,-0.59,-0.77,0.12,24.35,-5.55,19.90
1777399371348,2006286,-0.61,-0.80,0.16,25.09,-11.35,19.17
1777399371348,2006296,-0.61,-0.80,0.19,26.73,-23.38,16.36
1777399371348,2006306,-0.60,-0.80,0.22,27.89,-37.78,12.21
1777399371348,2006316,-0.57,-0.81,0.23,27.95,-51.70,9.46
1777399371348,2006326,-0.53,-0.79,0.24,27.28,-61.77,8.54
1777399371349,2006336,-0.52,-0.78,0.24,25.02,-66.47,10.56
1777399371349,2006346,-0.54,-0.77,0.24,22.34,-66.28,14.40
1777399371349,2006356,-0.57,-0.75,0.22,20.39,-61.77,17.58
1777399371349,2006376,-0.62,-0.77,0.20,20.02,-28.69,15.56
1777399371349,2006396,-0.68,-0.77,0.27,21.55,-17.03,18.98
1777399371350,2006416,-0.69,-0.77,0.29,16.36,-19.53,18.55
1777399371350,2006436,-0.69,-0.77,0.29,14.47,-29.42,18.01
1777399371350,2006446,-0.69,-0.76,0.29,15.87,-33.75,17.33
1777399371350,2006456,-0.69,-0.77,0.29,16.24,-36.74,15.44
1777399371350,2006466,-0.68,-0.75,0.30,16.42,-38.51,13.49
1777399371351,2006476,-0.66,-0.75,0.28,16.66,-38.51,12.63
1777399371351,2006486,-0.65,-0.75,0.28,16.42,-35.83,12.02
1777399371351,2006496,-0.66,-0.76,0.29,16.60,-31.62,13.18
1777399371351,2006506,-0.68,-0.75,0.31,17.15,-26.12,13.61
1777399371351,2006516,-0.70,-0.75,0.34,15.99,-21.61,12.21
1777399371352,2006526,-0.70,-0.75,0.34,14.16,-19.59,10.93
1777399371352,2006536,-0.69,-0.73,0.35,12.63,-18.62,11.17
1777399371352,2006546,-0.70,-0.71,0.37,10.44,-18.19,11.72
1777399371352,2006556,-0.71,-0.71,0.38,6.47,-18.98,12.63
1777399371352,2006566,-0.71,-0.71,0.37,2.38,-21.24,13.12
1777399371353,2006576,-0.70,-0.70,0.35,-0.49,-23.44,13.24
1777399371353,2006586,-0.68,-0.70,0.33,-1.83,-24.41,13.06
1777399371353,2006596,-0.67,-0.69,0.31,-2.44,-23.25,13.24
1777399371353,2006606,-0.66,-0.70,0.30,-2.14,-20.32,14.40
1777399371353,2006616,-0.66,-0.70,0.30,-1.34,-15.87,15.26
1777399371354,2006626,-0.67,-0.68,0.30,-0.79,-10.86,15.63
1777399371354,2006636,-0.68,-0.69,0.32,-0.85,-6.53,16.97
1777399371354,2006646,-0.70,-0.70,0.32,-0.06,-4.33,18.19
1777399371354,2006656,-0.70,-0.68,0.32,0.67,-4.33,17.21
1777399371355,2006666,-0.72,-0.69,0.33,0.00,-5.25,15.81
1777399371355,2006676,-0.72,-0.68,0.33,-0.61,-7.08,13.92
1777399371355,2006686,-0.71,-0.68,0.32,-0.67,-9.22,11.84
1777399371355,2006696,-0.71,-0.67,0.32,-1.22,-10.25,10.19
1777399371355,2006716,-0.71,-0.68,0.30,0.79,-11.54,8.12
1777399371355,2006736,-0.68,-0.66,0.27,1.71,-6.35,9.03
1777399371356,2006756,-0.72,-0.64,0.31,4.76,-0.98,13.43
1777399371356,2006776,-0.76,-0.64,0.33,5.00,-3.48,13.31
1777399371356,2006786,-0.75,-0.64,0.33,4.21,-6.96,10.38
1777399371356,2006796,-0.75,-0.65,0.33,3.17,-11.05,7.02
1777399371356,2006806,-0.74,-0.64,0.32,2.75,-15.56,4.58
1777399371356,2006816,-0.71,-0.64,0.30,2.20,-19.41,3.23
1777399371357,2006826,-0.69,-0.65,0.28,1.65,-21.18,2.32
1777399371357,2006836,-0.68,-0.64,0.28,1.89,-19.84,2.01
1777399371357,2006846,-0.69,-0.64,0.30,2.08,-16.91,2.69
1777399371357,2006856,-0.69,-0.64,0.32,1.53,-14.95,3.30
1777399371357,2006866,-0.69,-0.63,0.32,0.18,-14.59,3.91
1777399371358,2006876,-0.69,-0.62,0.31,-1.65,-14.65,4.82
1777399371358,2006886,-0.68,-0.63,0.31,-3.48,-14.28,6.29
1777399371358,2006896,-0.68,-0.64,0.30,-4.39,-13.37,8.18
1777399371358,2006906,-0.68,-0.63,0.30,-4.76,-12.76,9.64
1777399371358,2006916,-0.69,-0.64,0.31,-4.88,-13.00,11.05
1777399371358,2006926,-0.70,-0.64,0.32,-4.76,-14.04,11.66
1777399371359,2006936,-0.71,-0.64,0.33,-4.46,-15.26,12.02
1777399371359,2006946,-0.73,-0.64,0.34,-4.76,-16.17,11.47
1777399371359,2006956,-0.74,-0.64,0.35,-5.07,-16.66,9.64
1777399371359,2006966,-0.73,-0.63,0.35,-5.37,-16.11,7.57
1777399371359,2006976,-0.73,-0.60,0.35,-6.59,-14.40,5.98
1777399371359,2006986,-0.71,-0.61,0.34,-8.61,-11.96,6.29
1777399371360,2006996,-0.71,-0.62,0.34,-9.95,-8.97,7.20
1777399371360,2007006,-0.72,-0.61,0.35,-10.19,-7.08,7.57
1777399371360,2007016,-0.72,-0.62,0.35,-10.44,-6.84,7.39
1777399371360,2007026,-0.72,-0.61,0.35,-10.19,-7.69,6.90
1777399371360,2007036,-0.71,-0.61,0.34,-9.64,-8.67,6.71
1777399371360,2007046,-0.72,-0.60,0.34,-8.79,-8.54,6.65
1777399371361,2007066,-0.72,-0.59,0.35,-6.53,-5.13,4.58
1777399371361,2007086,-0.71,-0.57,0.35,-6.71,-3.48,4.33
1777399371361,2007106,-0.71,-0.57,0.34,-6.23,-1.83,6.53
1777399371361,2007126,-0.74,-0.56,0.35,-4.46,-2.20,5.98
1777399371361,2007136,-0.74,-0.56,0.35,-3.48,-3.85,4.27
1777399371361,2007146,-0.73,-0.55,0.35,-2.38,-5.19,2.87
1777399371362,2007156,-0.72,-0.55,0.35,-1.53,-6.35,2.01
1777399371362,2007166,-0.72,-0.56,0.33,-1.34,-7.02,1.59
1777399371362,2007176,-0.71,-0.56,0.33,-0.98,-6.84,1.53
1777399371362,2007186,-0.71,-0.55,0.33,-0.24,-6.59,1.83
1777399371362,2007196,-0.71,-0.55,0.33,0.24,-6.59,2.08
1777399371362,2007206,-0.71,-0.55,0.32,0.79,-6.77,2.50
1777399371363,2007216,-0.71,-0.55,0.32,1.34,-6.84,2.93
1777399371363,2007226,-0.72,-0.55,0.33,1.83,-6.71,3.17
1777399371363,2007236,-0.73,-0.55,0.33,2.20,-7.08,3.05
1777399371363,2007246,-0.72,-0.55,0.32,2.32,-7.45,2.56
1777399371363,2007256,-0.71,-0.55,0.32,2.14,-7.81,2.62
1777399371363,2007266,-0.71,-0.55,0.32,2.26,-7.93,3.30
1777399371364,2007276,-0.72,-0.56,0.32,2.38,-8.00,3.97
1777399371364,2007286,-0.72,-0.56,0.32,2.44,-7.93,4.21
1777399371364,2007296,-0.72,-0.56,0.33,2.14,-7.69,4.33
1777399371364,2007306,-0.72,-0.56,0.32,1.40,-7.45,4.46
1777399371364,2007316,-0.73,-0.56,0.32,0.85,-7.02,4.82
1777399371365,2007326,-0.72,-0.56,0.31,0.55,-5.92,5.31
1777399371365,2007336,-0.72,-0.56,0.30,0.31,-3.36,6.04
1777399371365,2007346,-0.72,-0.56,0.30,-0.18,0.31,6.90
1777399371365,2007356,-0.73,-0.57,0.31,-0.73,2.75,7.87
1777399371365,2007366,-0.74,-0.57,0.32,-0.43,2.99,8.73
1777399371365,2007376,-0.76,-0.57,0.32,-0.31,1.40,8.73
1777399371366,2007386,-0.76,-0.57,0.32,-0.61,-1.59,8.00
1777399371366,2007406,-0.76,-0.57,0.31,-1.46,-11.54,4.70
1777399371366,2007426,-0.75,-0.56,0.28,-1.53,-12.57,0.61
1777399371366,2007446,-0.74,-0.57,0.29,-1.65,-10.31,-1.10
1777399371366,2007466,-0.72,-0.58,0.29,-3.05,-11.11,-2.50
1777399371366,2007476,-0.71,-0.60,0.29,-3.48,-12.39,-3.05
1777399371367,2007486,-0.70,-0.61,0.29,-3.48,-14.10,-3.66
1777399371367,2007496,-0.69,-0.62,0.29,-3.11,-16.66,-3.48
1777399371367,2007506,-0.68,-0.62,0.30,-2.93,-18.92,-3.30
1777399371367,2007516,-0.68,-0.61,0.31,-2.81,-20.69,-2.32
1777399371367,2007526,-0.70,-0.62,0.32,-2.75,-21.67,-0.49
1777399371367,2007536,-0.71,-0.61,0.34,-2.87,-21.61,0.79
1777399371368,2007546,-0.73,-0.59,0.36,-3.23,-20.63,1.65
1777399371368,2007556,-0.75,-0.59,0.37,-3.60,-19.10,2.87
1777399371368,2007566,-0.75,-0.58,0.39,-4.58,-17.52,3.91
1777399371368,2007576,-0.77,-0.59,0.40,-6.84,-16.11,3.97
1777399371368,2007586,-0.78,-0.60,0.42,-9.16,-15.50,3.48
1777399371368,2007596,-0.77,-0.60,0.42,-11.35,-16.66,3.17
1777399371369,2007606,-0.76,-0.60,0.40,-13.55,-18.43,2.69
1777399371369,2007616,-0.75,-0.59,0.39,-15.26,-19.17,2.81
1777399371369,2007626,-0.74,-0.58,0.37,-16.30,-18.25,3.85
1777399371369,2007636,-0.74,-0.56,0.37,-16.66,-15.93,5.74
1777399371369,2007646,-0.75,-0.54,0.37,-16.72,-12.94,7.63
1777399371369,2007656,-0.76,-0.53,0.37,-16.91,-9.70,8.91
1777399371370,2007666,-0.77,-0.52,0.37,-16.91,-7.02,9.52
1777399371370,2007676,-0.78,-0.51,0.37,-16.85,-5.13,9.58
1777399371370,2007686,-0.78,-0.50,0.37,-16.72,-4.21,9.58
1777399371370,2007696,-0.78,-0.49,0.36,-16.36,-4.46,9.58
1777399371370,2007706,-0.77,-0.48,0.35,-15.87,-5.00,9.58
1777399371370,2007716,-0.77,-0.47,0.33,-15.20,-4.94,9.95
1777399371370,2007726,-0.76,-0.47,0.31,-14.28,-3.54,10.62
1777399371371,2007736,-0.76,-0.46,0.30,-12.82,-1.16,11.90
1777399371371,2007756,-0.77,-0.45,0.28,-8.24,5.55,13.06
1777399371371,2007776,-0.80,-0.46,0.28,-3.48,7.51,12.21
1777399371371,2007796,-0.82,-0.43,0.28,-0.31,8.30,8.24
1777399371371,2007816,-0.81,-0.46,0.27,1.40,6.35,5.55
1777399371371,2007826,-0.81,-0.46,0.26,2.62,3.78,3.97
1777399371372,2007836,-0.79,-0.47,0.25,3.78,0.85,2.20
1777399371372,2007846,-0.78,-0.47,0.24,5.19,-1.65,0.18
1777399371372,2007856,-0.76,-0.47,0.23,6.90,-3.05,-1.16
1777399371372,2007866,-0.74,-0.47,0.22,8.54,-3.78,-1.53
1777399371372,2007876,-0.74,-0.48,0.22,10.01,-3.97,-1.46
1777399371372,2007886,-0.73,-0.49,0.22,11.47,-3.72,-1.40
1777399371372,2007896,-0.75,-0.50,0.24,12.76,-4.09,-0.92
1777399371373,2007906,-0.76,-0.51,0.26,13.92,-5.86,-0.31
1777399371373,2007916,-0.78,-0.52,0.28,14.65,-9.64,-0.79
1777399371373,2007926,-0.79,-0.53,0.29,14.71,-14.89,-2.08
1777399371373,2007936,-0.79,-0.53,0.30,14.83,-19.65,-2.81
1777399371373,2007946,-0.80,-0.53,0.31,14.77,-22.28,-3.36
1777399371373,2007956,-0.81,-0.53,0.33,13.49,-23.07,-3.91
1777399371374,2007966,-0.81,-0.53,0.33,11.66,-23.19,-3.85
1777399371374,2007976,-0.81,-0.53,0.34,9.46,-22.46,-3.17
1777399371374,2007986,-0.81,-0.53,0.34,6.84,-20.75,-2.38
1777399371374,2007996,-0.81,-0.52,0.34,4.03,-18.07,-1.83
1777399371374,2008006,-0.81,-0.52,0.34,1.46,-14.40,-1.22
1777399371374,2008016,-0.82,-0.52,0.35,-1.46,-10.68,-0.61
1777399371374,2008026,-0.83,-0.52,0.35,-4.52,-8.79,-0.12
1777399371375,2008036,-0.83,-0.52,0.35,-7.02,-8.30,0.31
1777399371375,2008046,-0.84,-0.52,0.34,-8.91,-8.67,0.24
1777399371375,2008056,-0.83,-0.51,0.33,-10.01,-8.97,-0.31
1777399371375,2008066,-0.82,-0.51,0.31,-10.44,-8.97,-0.67
1777399371375,2008076,-0.82,-0.50,0.31,-11.05,-8.67,-0.85
1777399371375,2008096,-0.80,-0.49,0.28,-12.33,-6.71,-1.71
1777399371375,2008116,-0.78,-0.47,0.26,-10.38,-3.23,-0.06
1777399371376,2008136,-0.79,-0.49,0.28,-8.30,-0.92,-0.49
1777399371376,2008156,-0.80,-0.50,0.30,-6.16,-4.76,-2.99
1777399371376,2008166,-0.79,-0.50,0.30,-5.07,-8.91,-5.00
1777399371376,2008176,-0.78,-0.50,0.30,-3.48,-12.88,-6.29
1777399371376,2008186,-0.77,-0.50,0.30,-1.65,-15.38,-6.65
1777399371376,2008196,-0.77,-0.50,0.32,-0.67,-16.54,-6.90
1777399371376,2008206,-0.77,-0.50,0.33,-0.92,-17.09,-7.45
1777399371377,2008216,-0.77,-0.50,0.33,-1.28,-17.33,-7.93
1777399371377,2008226,-0.77,-0.51,0.33,-1.22,-16.78,-7.51
1777399371377,2008236,-0.77,-0.51,0.34,-1.59,-15.69,-6.65
1777399371377,2008246,-0.77,-0.52,0.35,-2.14,-14.28,-6.35
1777399371377,2008256,-0.78,-0.53,0.36,-2.26,-13.49,-6.59
1777399371377,2008266,-0.78,-0.54,0.37,-2.50,-14.16,-7.32
1777399371378,2008276,-0.78,-0.53,0.38,-2.62,-15.44,-8.18
1777399371378,2008286,-0.78,-0.53,0.38,-2.81,-16.72,-8.12
1777399371378,2008296,-0.78,-0.52,0.37,-3.23,-16.85,-7.57
1777399371378,2008306,-0.78,-0.51,0.38,-4.39,-15.69,-7.39
1777399371378,2008316,-0.78,-0.50,0.38,-5.80,-14.22,-7.32
1777399371378,2008326,-0.79,-0.49,0.38,-6.84,-12.45,-6.41
1777399371378,2008336,-0.79,-0.49,0.38,-7.63,-10.50,-5.25
1777399371379,2008346,-0.79,-0.48,0.38,-8.97,-8.48,-4.64
1777399371379,2008356,-0.80,-0.48,0.37,-10.13,-7.32,-4.27
1777399371379,2008366,-0.80,-0.48,0.36,-10.62,-6.71,-3.78
1777399371379,2008376,-0.79,-0.47,0.34,-10.93,-6.23,-3.36
1777399371379,2008386,-0.79,-0.47,0.32,-10.74,-5.62,-2.69
1777399371379,2008396,-0.79,-0.47,0.30,-9.28,-5.00,-2.08
1777399371379,2008406,-0.79,-0.46,0.30,-7.32,-4.33,-2.38
1777399371379,2008416,-0.79,-0.46,0.30,-5.62,-4.21,-2.93
1777399371380,2008426,-0.79,-0.46,0.30,-4.09,-4.82,-1.95
1777399371380,2008446,-0.80,-0.47,0.30,1.16,-7.81,-2.44
1777399371380,2008466,-0.80,-0.47,0.29,3.78,-5.80,-2.14
1777399371380,2008486,-0.79,-0.46,0.30,4.52,-1.89,-2.38
1777399371380,2008506,-0.80,-0.47,0.31,4.64,-1.04,-1.40
1777399371380,2008516,-0.80,-0.48,0.31,5.37,-1.65,-1.10
1777399371380,2008526,-0.80,-0.48,0.31,5.86,-2.14,-1.34
1777399371381,2008536,-0.80,-0.49,0.31,6.04,-2.87,-2.20
1777399371381,2008546,-0.80,-0.48,0.30,6.77,-3.54,-2.93
1777399371381,2008556,-0.80,-0.48,0.30,7.87,-3.30,-2.99
1777399371381,2008566,-0.81,-0.48,0.31,8.73,-2.26,-2.69
1777399371381,2008576,-0.81,-0.48,0.32,8.97,-0.49,-2.75
1777399371381,2008586,-0.81,-0.49,0.32,8.54,0.67,-2.99
1777399371381,2008596,-0.81,-0.49,0.32,7.81,1.40,-3.23
1777399371381,2008606,-0.81,-0.49,0.32,7.45,1.59,-3.17
1777399371382,2008616,-0.82,-0.49,0.32,7.75,1.16,-2.62
1777399371382,2008626,-0.82,-0.49,0.33,8.30,0.55,-2.62
1777399371382,2008636,-0.83,-0.49,0.33,8.36,-0.24,-3.72
1777399371382,2008646,-0.82,-0.49,0.33,8.18,-0.92,-4.88
1777399371382,2008656,-0.81,-0.48,0.32,7.69,-1.04,-5.92
1777399371382,2008666,-0.81,-0.47,0.32,7.08,-0.31,-6.35
1777399371382,2008676,-0.80,-0.47,0.31,6.90,0.73,-6.04
1777399371383,2008686,-0.79,-0.46,0.31,6.53,1.83,-5.80
1777399371383,2008696,-0.78,-0.46,0.30,6.41,2.62,-5.49
1777399371383,2008706,-0.78,-0.46,0.30,6.29,3.54,-4.94
1777399371383,2008716,-0.77,-0.46,0.30,6.10,4.09,-4.82
1777399371383,2008726,-0.77,-0.47,0.30,6.35,3.91,-4.46
1777399371383,2008736,-0.77,-0.47,0.30,6.90,2.87,-3.78
1777399371383,2008746,-0.78,-0.47,0.30,7.39,1.28,-3.30
1777399371383,2008756,-0.78,-0.47,0.30,7.63,-1.04,-3.23
1777399371384,2008766,-0.79,-0.47,0.30,7.75,-2.87,-3.66
1777399371384,2008786,-0.79,-0.47,0.29,7.20,-2.62,-4.09
1777399371384,2008806,-0.79,-0.47,0.31,6.84,-0.92,-2.93
1777399371384,2008826,-0.81,-0.46,0.31,5.68,-0.73,-3.42
1777399371384,2008846,-0.81,-0.47,0.31,6.47,-1.53,-3.66
1777399371384,2008856,-0.81,-0.47,0.30,6.84,-2.81,-4.21
1777399371384,2008866,-0.81,-0.47,0.30,7.08,-4.03,-5.13
1777399371385,2008876,-0.81,-0.47,0.30,7.45,-4.88,-5.55
1777399371385,2008886,-0.81,-0.47,0.30,7.57,-5.68,-5.62
1777399371385,2008896,-0.81,-0.47,0.30,7.20,-6.04,-6.04
1777399371385,2008906,-0.82,-0.47,0.30,6.90,-6.41,-6.71
1777399371385,2008916,-0.82,-0.47,0.29,7.20,-6.41,-7.14
1777399371385,2008926,-0.81,-0.48,0.29,7.75,-6.04,-7.45
1777399371385,2008936,-0.81,-0.48,0.30,8.30,-5.13,-7.63
1777399371385,2008946,-0.82,-0.48,0.31,9.28,-4.09,-7.51
1777399371386,2008956,-0.83,-0.48,0.32,9.77,-3.23,-7.75
1777399371386,2008966,-0.83,-0.48,0.34,9.28,-3.11,-8.30
1777399371386,2008976,-0.83,-0.48,0.34,8.18,-3.78,-8.73
1777399371386,2008986,-0.83,-0.48,0.34,7.08,-5.13,-9.58
1777399371386,2008996,-0.83,-0.48,0.34,6.10,-6.16,-10.19
1777399371386,2009006,-0.82,-0.48,0.35,5.31,-6.96,-10.80
1777399371386,2009016,-0.82,-0.47,0.34,4.27,-7.39,-11.29
1777399371387,2009026,-0.81,-0.47,0.33,3.66,-6.77,-11.17
1777399371387,2009036,-0.81,-0.46,0.33,3.11,-5.07,-10.62
1777399371387,2009046,-0.81,-0.46,0.33,2.75,-2.81,-9.52
1777399371387,2009056,-0.81,-0.45,0.33,2.69,-0.73,-8.61
1777399371387,2009066,-0.81,-0.45,0.33,2.26,0.79,-8.42
1777399371387,2009076,-0.81,-0.45,0.32,1.83,1.34,-8.48
1777399371387,2009086,-0.80,-0.45,0.31,1.65,0.79,-8.54
1777399371388,2009096,-0.79,-0.45,0.30,2.26,-0.49,-8.48
1777399371388,2009106,-0.79,-0.45,0.29,2.99,-2.08,-8.24
1777399371388,2009116,-0.78,-0.45,0.29,3.97,-3.11,-8.36
1777399371388,2009136,-0.77,-0.44,0.28,5.80,-4.15,-7.63
1777399371388,2009156,-0.76,-0.45,0.28,7.45,-2.75,-5.19
1777399371388,2009176,-0.78,-0.47,0.29,9.09,-2.50,-2.81
1777399371388,2009196,-0.80,-0.48,0.30,10.07,-4.27,-0.73
1777399371388,2009206,-0.81,-0.48,0.31,10.01,-4.76,-0.49
1777399371389,2009216,-0.83,-0.47,0.32,9.89,-5.25,-0.92
1777399371389,2009226,-0.85,-0.47,0.32,9.83,-5.19,-1.46
1777399371389,2009236,-0.84,-0.47,0.31,9.46,-4.46,-2.44
1777399371389,2009246,-0.84,-0.47,0.31,8.67,-2.81,-3.11
1777399371389,2009256,-0.84,-0.47,0.30,7.81,0.31,-3.23
1777399371389,2009266,-0.85,-0.47,0.31,7.81,3.36,-2.75
1777399371389,2009276,-0.86,-0.47,0.31,8.61,5.37,-2.38
1777399371389,2009286,-0.86,-0.47,0.31,9.22,5.80,-3.17
1777399371389,2009296,-0.86,-0.48,0.31,9.77,4.88,-4.27
1777399371390,2009306,-0.85,-0.48,0.31,10.19,3.60,-5.80
1777399371390,2009316,-0.84,-0.48,0.30,10.62,2.38,-6.96
1777399371390,2009326,-0.83,-0.47,0.30,11.11,1.65,-7.57
1777399371390,2009336,-0.81,-0.47,0.29,11.41,1.46,-7.69
1777399371390,2009346,-0.81,-0.47,0.29,11.60,1.95,-7.63
1777399371390,2009356,-0.81,-0.46,0.29,11.84,2.87,-7.63
1777399371390,2009366,-0.81,-0.46,0.29,12.08,3.66,-7.75
1777399371391,2009376,-0.81,-0.46,0.30,11.90,3.78,-8.00
1777399371391,2009386,-0.80,-0.46,0.30,12.15,2.93,-8.12
1777399371391,2009396,-0.79,-0.45,0.30,12.45,2.20,-8.36
1777399371391,2009406,-0.79,-0.45,0.30,12.08,1.83,-8.48
1777399371391,2009416,-0.79,-0.45,0.30,12.39,2.08,-8.24
1777399371391,2009426,-0.79,-0.45,0.31,13.24,2.26,-7.57
1777399371391,2009436,-0.80,-0.45,0.32,13.49,2.26,-7.75
1777399371391,2009446,-0.80,-0.45,0.33,13.31,1.77,-8.36
1777399371392,2009456,-0.80,-0.45,0.32,12.76,0.73,-8.97
1777399371392,2009466,-0.79,-0.45,0.32,11.90,-15.56,-9.34
1777399371392,2009486,-0.78,-0.45,0.31,11.29,0.00,-8.67
1777399371392,2009506,-0.79,-0.45,0.33,11.54,-2.56,-8.61
1777399371392,2009526,-0.79,-0.46,0.32,11.60,-5.74,-8.18
1777399371392,2009536,-0.79,-0.46,0.32,11.35,-6.16,-8.12
1777399371392,2009546,-0.79,-0.46,0.31,10.86,-5.86,-8.18
1777399371392,2009556,-0.79,-0.46,0.32,10.86,-5.74,-8.18
1777399371393,2009566,-0.79,-0.46,0.32,10.80,-5.92,-8.06
1777399371393,2009576,-0.79,-0.47,0.32,9.89,-6.96,-8.36
1777399371393,2009586,-0.78,-0.47,0.31,8.48,-8.18,-8.85
1777399371393,2009596,-0.77,-0.48,0.29,7.57,-8.73,-8.97
1777399371393,2009606,-0.77,-0.48,0.29,7.39,-8.30,-9.28
1777399371393,2009616,-0.78,-0.49,0.30,7.69,-8.24,-9.34
1777399371393,2009626,-0.79,-0.49,0.31,8.67,-9.64,-9.03
1777399371393,2009636,-0.81,-0.49,0.32,9.64,-11.96,-9.03
1777399371394,2009646,-0.82,-0.48,0.33,9.16,-14.40,-9.64
1777399371394,2009656,-0.83,-0.48,0.32,7.45,-16.48,-10.19
1777399371394,2009666,-0.84,-0.47,0.32,6.35,-17.76,-10.68
1777399371394,2009676,-0.84,-0.46,0.32,5.31,-17.88,-11.84
1777399371394,2009686,-0.84,-0.46,0.31,4.09,-17.94,-12.94
1777399371394,2009696,-0.83,-0.44,0.31,3.11,-17.64,-14.34
1777399371404,2009706,-0.83,-0.43,0.31,1.59,-17.70,-16.60
1777399371414,2009716,-0.81,-0.43,0.29,0.31,-18.80,-18.25
1777399371424,2009726,-0.79,-0.41,0.27,0.31,-19.41,-19.29
1777399371434,2009736,-0.78,-0.39,0.27,0.43,-19.53,-21.55
1777399371444,2009746,-0.76,-0.36,0.28,-1.71,-21.00,-25.02
1777399371454,2009756,-0.74,-0.38,0.28,-6.04,-25.15,-28.32
1777399371464,2009766,-0.71,-0.35,0.28,-10.07,-30.64,-31.56
1777399371474,2009776,-0.68,-0.35,0.27,-15.56,-39.86,-34.73
1777399371485,2009786,-0.66,-0.34,0.24,-19.29,-52.31,-38.64
1777399371494,2009796,-0.68,-0.34,0.25,-21.42,-66.65,-44.80
1777399371504,2009806,-0.65,-0.30,0.23,-20.08,-85.33,-53.53
1777399371524,2009826,-0.54,-0.31,0.20,-13.43,-124.94,-69.21
1777399371544,2009846,-0.53,-0.41,0.24,-8.73,-118.10,-74.95
1777399371564,2009866,-0.46,-0.46,0.22,8.91,-97.78,-74.58
1777399371584,2009886,-0.57,-0.44,0.54,34.48,-96.80,-73.79
1777399371594,2009896,-0.59,-0.51,0.63,37.41,-116.64,-77.33
1777399371604,2009906,-0.56,-0.51,0.59,36.99,-136.78,-85.14
1777399371614,2009916,-0.48,-0.52,0.49,39.43,-144.47,-90.82
1777399371624,2009926,-0.40,-0.53,0.49,48.83,-131.16,-93.75
1777399371634,2009936,-0.35,-0.53,0.58,58.11,-106.38,-92.22
1777399371644,2009946,-0.37,-0.54,0.73,62.07,-84.78,-86.30
1777399371654,2009956,-0.41,-0.57,0.90,58.78,-70.86,-77.21
1777399371665,2009966,-0.40,-0.59,0.88,46.02,-64.21,-68.54
1777399371674,2009976,-0.36,-0.61,0.87,31.13,-55.24,-61.04
1777399371684,2009986,-0.34,-0.67,0.85,20.39,-47.67,-49.93
1777399371695,2009996,-0.35,-0.69,0.81,14.83,-41.32,-41.02
1777399371704,2010006,-0.35,-0.73,0.76,15.75,-34.06,-37.48
1777399371714,2010016,-0.35,-0.74,0.77,25.51,-27.28,-37.60
1777399371724,2010026,-0.36,-0.76,0.83,39.43,-23.68,-37.84
1777399371737,2010036,-0.36,-0.79,0.91,51.57,-22.83,-39.06
1777399371745,2010046,-0.34,-0.79,1.01,56.70,-21.24,-38.70
1777399371754,2010056,-0.37,-0.82,1.10,51.70,-18.74,-32.96
1777399371768,2010066,-0.42,-0.93,1.09,38.09,-21.36,-26.92
1777399371776,2010076,-0.50,-1.13,0.96,26.98,-30.40,-24.96
1777399371784,2010086,-0.61,-1.55,0.81,26.79,-42.60,-28.81
1777399371794,2010096,-0.76,-2.27,0.75,38.21,-57.25,-45.84
1777399371804,2010106,-0.71,-3.21,0.65,54.93,-84.59,-75.50
1777399371814,2010116,-0.46,-4.00,0.65,70.43,-110.53,-109.13
1777399371824,2010126,-0.14,-4.00,1.16,92.96,-122.86,-129.76
1777399371834,2010136,-0.05,-4.00,2.46,99.37,-116.94,-119.02
1777399371844,2010146,0.03,-4.00,3.96,39.67,-103.70,-76.60
1777399371854,2010156,-0.05,-4.00,4.00,-104.92,-11.90,94.36
1777399371875,2010176,-0.71,-3.38,4.00,-750.18,194.09,272.89
1777399371895,2010196,-0.90,-0.09,2.54,-929.32,232.24,264.40
1777399371914,2010216,-0.00,0.16,1.44,-738.83,172.67,86.30
1777399371934,2010236,1.71,1.50,2.32,-384.77,28.14,-142.94
1777399371944,2010246,2.34,2.32,2.43,-301.76,-49.38,-168.82
1777399371954,2010256,2.56,2.62,2.14,-258.30,-90.15,-96.19
1777399371964,2010266,1.98,2.46,2.24,-235.17,-39.43,32.29
1777399371974,2010276,1.13,2.26,2.10,-241.64,52.61,133.97
1777399371984,2010286,0.32,1.66,1.91,-260.38,117.31,169.19
1777399371994,2010296,-0.38,1.46,1.75,-242.49,112.43,144.65
1777399372004,2010306,-0.59,1.53,1.04,-211.43,35.28,87.83
1777399372014,2010316,-0.47,1.59,0.17,-178.10,-24.48,34.12
1777399372024,2010326,-0.44,1.52,-0.27,-129.94,-23.44,13.79
1777399372034,2010336,-0.57,1.34,-0.29,-76.11,-1.22,13.67
1777399372044,2010346,-0.64,1.09,-0.22,-31.19,5.13,6.41
1777399372054,2010356,-0.57,0.89,-0.25,3.17,-7.26,-7.26
1777399372064,2010366,-0.49,0.69,-0.27,30.70,-17.52,-13.43
1777399372074,2010376,-0.50,0.48,-0.24,51.15,-11.96,-7.69
1777399372085,2010386,-0.60,0.17,-0.17,63.96,-0.92,1.83
1777399372095,2010396,-0.68,-0.09,-0.17,72.45,-0.67,0.31
1777399372104,2010406,-0.63,-0.26,-0.25,80.08,-12.08,-10.25
1777399372114,2010416,-0.50,-0.35,-0.35,87.34,-22.83,-16.97
1777399372124,2010426,-0.41,-0.43,-0.45,90.03,-24.41,-12.33
1777399372134,2010436,-0.46,-0.56,-0.46,89.78,-17.88,1.77
1777399372144,2010446,-0.58,-0.66,-0.41,91.98,-8.85,17.46
1777399372154,2010456,-0.74,-0.71,-0.34,93.38,0.73,31.31
1777399372164,2010466,-0.89,-0.81,-0.32,90.70,10.99,40.77
1777399372175,2010476,-0.99,-1.00,-0.30,88.44,21.00,39.43
1777399372184,2010486,-0.96,-1.05,-0.26,89.66,19.96,24.29
1777399372195,2010496,-0.80,-1.02,-0.32,87.16,3.85,-10.31
1777399372214,2010516,-0.37,-0.89,-0.47,86.73,-8.67,-0.24
1777399372235,2010536,-0.18,-0.84,-0.28,84.05,-9.77,22.77
1777399372254,2010556,-0.70,-0.82,-0.21,85.39,8.67,48.71
1777399372275,2010576,-0.89,-0.76,-0.12,83.31,12.02,33.20
1777399372284,2010586,-0.86,-0.71,-0.17,74.71,5.62,20.02
1777399372295,2010596,-0.74,-0.70,-0.22,71.29,-0.06,11.17
1777399372304,2010606,-0.64,-0.64,-0.21,75.62,-2.69,4.88
1777399372314,2010616,-0.52,-0.60,-0.16,82.40,-6.65,-0.37
1777399372324,2010626,-0.40,-0.59,-0.14,86.30,-15.01,-4.09
1777399372334,2010636,-0.31,-0.60,-0.20,88.26,-25.51,-5.25
