host_time_ms,arduino_time_ms,ax,ay,az,gx,gy,gz
1777399325982,1943086,-0.28,-0.63,-0.37,72.81,-38.88,-12.08
1777399325982,1943096,-0.26,-0.65,-0.42,79.77,-45.84,-10.01
1777399325983,1943106,-0.27,-0.68,-0.46,93.38,-47.91,-5.80
1777399325983,1943116,-0.29,-0.72,-0.50,110.41,-44.25,2.93
1777399325983,1943126,-0.35,-0.77,-0.47,125.18,-33.39,12.88
1777399325984,1943136,-0.45,-0.82,-0.38,136.66,-18.68,19.41
1777399325984,1943146,-0.57,-0.89,-0.22,142.88,-5.92,13.24
1777399325984,1943166,-0.70,-1.01,0.09,140.50,-39.73,-2.87
1777399325984,1943186,-0.60,-1.06,0.13,128.23,-69.03,-12.63
1777399325985,1943206,-0.66,-1.13,0.08,114.44,-59.57,-1.77
1777399325985,1943226,-0.66,-1.18,0.01,118.10,-18.68,4.58
1777399325985,1943236,-0.67,-1.15,0.05,121.77,1.22,4.39
1777399325985,1943246,-0.66,-1.12,0.13,121.77,13.24,3.54
1777399325985,1943256,-0.61,-1.08,0.22,117.55,15.32,3.05
1777399325986,1943266,-0.44,-0.91,0.59,101.62,7.63,6.04
1777399325986,1943276,-0.76,-0.93,0.34,58.96,-9.64,15.69
1777399325987,1943286,-0.72,-1.21,0.17,41.63,-22.28,17.64
1777399325987,1943296,-0.66,-1.19,0.17,47.97,-28.50,6.96
1777399325987,1943306,-0.62,-1.06,0.18,60.42,-32.59,-0.98
1777399325988,1943316,-0.58,-0.98,0.18,62.26,-32.53,-1.53
1777399325988,1943326,-0.63,-1.02,0.17,58.04,-26.67,2.50
1777399325988,1943336,-0.57,-0.95,0.11,52.31,-15.44,5.55
1777399325989,1943346,-0.54,-0.96,0.12,50.66,-0.37,8.36
1777399325989,1943356,-0.56,-0.95,0.17,47.49,11.11,10.80
1777399325989,1943366,-0.62,-0.92,0.26,45.29,18.86,13.24
1777399325989,1943376,-0.67,-0.94,0.33,40.71,18.68,14.04
1777399325989,1943386,-0.60,-0.83,0.35,37.05,8.67,10.50
1777399325990,1943396,-0.39,-0.63,0.39,30.76,-3.36,13.79
1777399325990,1943406,-0.56,-0.75,0.32,19.47,-12.15,34.24
1777399325990,1943416,-0.89,-0.95,0.29,9.89,-11.72,37.78
1777399325990,1943426,-0.66,-0.83,0.28,8.48,-11.90,15.63
1777399325991,1943436,-0.54,-0.82,0.22,13.43,-18.13,3.91
1777399325991,1943446,-0.59,-0.79,0.17,19.78,-15.69,0.73
1777399325991,1943456,-0.59,-0.74,0.19,23.44,-6.96,-3.36
1777399325991,1943466,-0.60,-0.73,0.23,22.58,2.26,-5.31
1777399325991,1943476,-0.60,-0.73,0.26,19.59,7.20,-4.21
1777399325992,1943486,-0.63,-0.73,0.28,16.05,8.06,-3.91
1777399325992,1943506,-0.61,-0.74,0.30,8.67,-1.59,-9.83
1777399325992,1943526,-0.58,-0.75,0.29,6.29,-5.98,-7.75
1777399325992,1943546,-0.56,-0.71,0.29,8.12,-5.49,-9.95
1777399325992,1943566,-0.54,-0.69,0.29,8.79,-4.39,-7.63
1777399325993,1943576,-0.54,-0.71,0.28,9.22,-4.39,-5.00
1777399325993,1943586,-0.52,-0.72,0.27,10.86,-3.97,-2.75
1777399325993,1943596,-0.52,-0.70,0.27,13.18,-2.99,-1.77
1777399325993,1943606,-0.52,-0.69,0.27,14.16,-1.53,-0.61
1777399325994,1943616,-0.52,-0.71,0.28,14.40,-0.43,0.73
1777399325994,1943626,-0.53,-0.72,0.28,15.63,-1.16,1.16
1777399325994,1943636,-0.53,-0.71,0.26,18.25,-4.15,-0.67
1777399325994,1943646,-0.53,-0.70,0.27,22.22,-6.53,-2.87
1777399325995,1943656,-0.52,-0.69,0.28,26.61,-9.28,-3.30
1777399325995,1943666,-0.52,-0.69,0.28,30.15,-12.51,-3.30
1777399325995,1943676,-0.54,-0.72,0.28,33.87,-14.34,-2.87
1777399325995,1943686,-0.52,-0.74,0.25,41.08,-16.78,0.55
1777399325995,1943696,-0.49,-0.72,0.22,50.78,-17.58,0.43
1777399325996,1943706,-0.50,-0.75,0.16,61.95,-15.14,0.12
1777399325996,1943716,-0.53,-0.75,0.17,81.05,-8.00,1.77
1777399325996,1943726,-0.57,-0.74,0.30,99.24,-4.21,3.17
1777399325996,1943736,-0.57,-0.71,0.34,108.03,-6.96,-0.06
1777399325996,1943746,-0.59,-0.67,0.43,113.10,-7.45,-4.27
1777399325997,1943756,-0.60,-0.66,0.49,112.00,-11.72,-7.20
1777399325997,1943766,-0.59,-0.66,0.51,108.83,-18.37,-8.91
1777399325997,1943776,-0.59,-0.67,0.45,109.01,-24.60,-9.89
1777399325997,1943786,-0.57,-0.68,0.49,119.32,-27.83,-8.30
1777399325997,1943796,-0.55,-0.62,0.44,123.78,-27.47,-4.39
1777399325998,1943806,-0.56,-0.59,0.58,125.18,-22.89,-0.61
1777399325998,1943816,-0.60,-0.61,0.47,122.56,-20.20,4.33
1777399325998,1943826,-0.64,-0.61,0.37,139.77,-15.87,3.60
1777399325998,1943836,-0.62,-0.63,0.56,164.55,-11.05,1.71
1777399325998,1943856,-0.54,-0.42,0.70,124.21,-20.81,-1.34
1777399325999,1943876,-0.57,-0.39,0.69,72.27,-24.60,1.53
1777399325999,1943896,-0.55,-0.45,0.68,53.34,-20.14,6.59
1777399325999,1943916,-0.61,-0.45,0.67,43.88,-12.33,10.56
1777399325999,1943926,-0.62,-0.48,0.68,43.15,-8.97,9.70
1777399326000,1943936,-0.62,-0.48,0.68,44.19,-8.67,6.90
1777399326000,1943946,-0.62,-0.47,0.70,46.45,-9.58,5.43
1777399326000,1943956,-0.62,-0.45,0.73,48.95,-10.50,5.86
1777399326000,1943966,-0.60,-0.48,0.73,49.87,-11.29,7.63
1777399326000,1943976,-0.60,-0.50,0.72,47.42,-10.13,8.00
1777399326000,1943986,-0.62,-0.39,0.75,46.39,-7.45,6.04
1777399326001,1943996,-0.60,-0.42,0.70,44.56,-6.10,7.81
1777399326001,1944006,-0.58,-0.38,0.76,37.60,-2.75,7.32
1777399326001,1944016,-0.57,-0.37,0.63,30.58,0.37,8.67
1777399326001,1944026,-0.59,-0.42,0.57,27.04,8.97,8.85
1777399326001,1944036,-0.63,-0.41,0.61,26.31,23.44,5.25
1777399326002,1944046,-0.64,-0.38,0.68,23.25,32.78,0.92
1777399326002,1944056,-0.65,-0.36,0.73,18.86,33.69,-1.46
1777399326002,1944066,-0.64,-0.38,0.72,12.02,27.47,-0.98
1777399326002,1944076,-0.65,-0.39,0.71,6.59,18.86,0.55
1777399326002,1944086,-0.64,-0.40,0.66,7.39,9.83,3.72
1777399326002,1944096,-0.63,-0.44,0.61,13.06,3.48,7.08
1777399326003,1944106,-0.61,-0.45,0.58,21.55,0.98,7.26
1777399326003,1944116,-0.60,-0.45,0.57,28.99,2.75,5.49
1777399326003,1944126,-0.68,-0.47,0.87,34.42,4.46,4.76
1777399326003,1944136,-0.62,-0.53,0.66,39.12,-8.36,0.43
1777399326003,1944146,-0.65,-0.38,0.70,40.04,-12.33,-6.77
1777399326003,1944156,-0.63,-0.32,0.71,41.20,-14.53,-5.49
1777399326004,1944166,-0.65,-0.33,0.73,37.60,-16.91,-5.98
1777399326004,1944176,-0.68,-0.36,0.75,32.10,-17.94,-5.00
1777399326004,1944196,-0.69,-0.39,0.79,22.28,-30.76,-10.31
1777399326004,1944216,-0.60,-0.41,0.68,23.50,-16.66,-8.79
1777399326004,1944236,-0.59,-0.37,0.78,17.88,-3.78,-9.22
1777399326004,1944256,-0.61,-0.36,0.84,11.23,-5.43,-11.90
1777399326005,1944266,-0.57,-0.34,0.81,11.11,-9.52,-10.86
1777399326005,1944276,-0.55,-0.36,0.80,10.31,-12.15,-6.23
1777399326005,1944286,-0.57,-0.34,0.76,10.80,-13.12,-4.15
1777399326005,1944296,-0.59,-0.35,0.76,7.81,-11.90,-5.25
1777399326005,1944306,-0.57,-0.38,0.77,7.51,-10.99,-3.30
1777399326006,1944316,-0.59,-0.36,0.76,11.96,-10.74,-2.75
1777399326006,1944326,-0.55,-0.38,0.76,15.38,-10.07,-2.44
1777399326006,1944336,-0.58,-0.34,0.75,16.60,-8.30,-4.09
1777399326006,1944346,-0.57,-0.34,0.76,15.69,-7.26,-3.11
1777399326006,1944356,-0.58,-0.34,0.78,14.77,-7.02,-2.01
1777399326006,1944366,-0.60,-0.32,0.78,16.36,-8.24,-1.59
1777399326007,1944376,-0.58,-0.34,0.76,18.13,-9.16,-0.18
1777399326007,1944386,-0.54,-0.27,0.74,17.94,-9.52,-1.34
1777399326007,1944396,-0.57,-0.25,0.75,8.85,-5.98,-4.64
1777399326007,1944406,-0.58,-0.31,0.75,-1.10,-3.54,-7.51
1777399326007,1944416,-0.56,-0.29,0.74,-5.19,-2.81,-4.64
1777399326007,1944426,-0.54,-0.28,0.70,-5.00,-1.22,-5.00
1777399326008,1944436,-0.56,-0.28,0.74,-8.42,3.11,-5.86
1777399326008,1944446,-0.55,-0.28,0.75,-7.69,3.17,-4.09
1777399326008,1944456,-0.54,-0.29,0.73,-5.80,1.83,-3.72
1777399326008,1944466,-0.56,-0.27,0.75,-4.76,0.37,-2.93
1777399326008,1944476,-0.55,-0.31,0.74,-2.50,-2.56,-1.34
1777399326009,1944486,-0.54,-0.32,0.73,0.43,-4.52,-1.34
1777399326009,1944496,-0.55,-0.31,0.73,5.80,-6.84,-0.85
1777399326009,1944506,-0.57,-0.31,0.73,11.90,-9.03,0.06
1777399326009,1944516,-0.58,-0.31,0.73,15.26,-11.11,0.61
1777399326009,1944526,-0.59,-0.31,0.74,15.50,-12.21,-0.98
1777399326009,1944546,-0.57,-0.29,0.75,10.56,-12.94,-3.91
1777399326010,1944566,-0.59,-0.30,0.74,7.81,-11.78,-2.26
1777399326010,1944586,-0.50,-0.29,0.75,6.35,-8.48,1.16
1777399326010,1944606,-0.56,-0.27,0.73,2.99,-5.19,3.23
1777399326010,1944616,-0.57,-0.27,0.75,-2.93,-3.85,4.21
1777399326010,1944626,-0.56,-0.29,0.77,-11.90,-3.30,4.21
1777399326010,1944636,-0.58,-0.29,0.79,-18.80,-3.91,2.08
1777399326011,1944646,-0.57,-0.30,0.80,-21.79,-4.70,3.60
1777399326011,1944656,-0.59,-0.31,0.80,-22.03,-5.86,5.68
1777399326011,1944666,-0.56,-0.33,0.79,-21.91,-7.57,5.55
1777399326011,1944676,-0.60,-0.31,0.79,-22.28,-8.12,4.03
1777399326011,1944686,-0.58,-0.31,0.78,-22.52,-8.24,5.74
1777399326011,1944696,-0.57,-0.32,0.77,-24.17,-7.20,6.29
1777399326012,1944706,-0.59,-0.31,0.77,-25.88,-5.80,6.59
1777399326012,1944716,-0.58,-0.31,0.74,-26.55,-3.97,7.57
1777399326012,1944726,-0.56,-0.31,0.72,-27.83,-1.10,7.26
1777399326012,1944736,-0.60,-0.29,0.74,-30.15,2.75,7.08
1777399326012,1944746,-0.59,-0.30,0.74,-31.98,5.31,8.36
1777399326012,1944756,-0.60,-0.32,0.72,-33.57,7.08,8.00
1777399326013,1944766,-0.60,-0.32,0.72,-34.42,7.87,7.32
1777399326013,1944776,-0.58,-0.33,0.71,-35.71,9.03,5.98
1777399326013,1944786,-0.60,-0.33,0.73,-35.52,9.77,5.68
1777399326013,1944796,-0.58,-0.36,0.73,-33.51,9.16,7.14
1777399326013,1944806,-0.60,-0.34,0.72,-31.86,7.75,6.53
1777399326013,1944816,-0.60,-0.34,0.70,-29.79,6.41,6.47
1777399326014,1944826,-0.60,-0.36,0.69,-27.34,5.55,6.23
1777399326014,1944836,-0.60,-0.37,0.70,-23.86,4.33,5.13
1777399326014,1944846,-0.61,-0.35,0.70,-19.41,2.81,4.03
1777399326014,1944856,-0.59,-0.36,0.67,-15.69,1.10,3.36
1777399326014,1944866,-0.59,-0.35,0.67,-14.22,0.00,3.11
1777399326014,1944886,-0.61,-0.34,0.71,-3.54,-10.31,5.31
1777399326014,1944906,-0.59,-0.34,0.66,-5.07,-10.07,6.16
1777399326015,1944926,-0.62,-0.37,0.69,-3.17,-10.07,7.57
1777399326015,1944946,-0.65,-0.33,0.69,-4.46,-7.69,4.03
1777399326015,1944956,-0.63,-0.33,0.68,-5.37,-5.31,5.43
1777399326015,1944966,-0.61,-0.33,0.64,-6.90,-1.65,6.84
1777399326015,1944976,-0.61,-0.33,0.57,-11.17,5.86,6.84
1777399326015,1944986,-0.62,-0.34,0.60,-20.32,18.25,5.31
1777399326016,1944996,-0.68,-0.35,0.69,-27.95,27.77,1.77
1777399326016,1945006,-0.83,-0.50,1.09,-27.10,27.71,-3.54
1777399326016,1945016,-0.79,-0.36,0.78,-3.23,1.04,-6.10
1777399326016,1945026,-0.64,-0.36,0.59,9.03,-13.12,2.26
1777399326016,1945036,-0.63,-0.37,0.51,3.11,-12.51,-2.14
1777399326016,1945046,-0.67,-0.37,0.62,-4.82,-3.05,-1.95
1777399326017,1945056,-0.67,-0.39,0.66,-2.87,-0.49,0.00
1777399326017,1945066,-0.69,-0.40,0.62,0.98,-2.69,-1.10
1777399326017,1945076,-0.68,-0.37,0.61,0.79,-1.10,-2.32
1777399326017,1945086,-0.68,-0.34,0.63,-1.59,1.46,-2.87
1777399326017,1945096,-0.66,-0.35,0.63,-3.85,2.87,-2.01
1777399326017,1945106,-0.66,-0.37,0.61,-5.49,4.64,-2.20
1777399326018,1945116,-0.65,-0.38,0.60,-6.77,7.39,-3.66
1777399326018,1945126,-0.65,-0.38,0.61,-7.26,9.83,-5.80
1777399326018,1945136,-0.66,-0.36,0.62,-6.47,10.74,-6.41
1777399326018,1945146,-0.67,-0.37,0.62,-5.43,10.44,-5.55
1777399326018,1945156,-0.67,-0.37,0.62,-4.46,9.28,-5.31
1777399326018,1945166,-0.65,-0.37,0.61,-4.09,8.06,-4.88
1777399326018,1945176,-0.65,-0.37,0.60,-4.21,7.32,-4.39
1777399326019,1945186,-0.65,-0.38,0.61,-4.46,6.77,-4.52
1777399326019,1945196,-0.66,-0.37,0.61,-3.11,5.31,-5.00
1777399326019,1945206,-0.64,-0.36,0.60,-1.28,3.48,-4.58
1777399326019,1945216,-0.62,-0.37,0.58,-0.12,1.83,-4.09
1777399326019,1945236,-0.62,-0.39,0.61,2.99,-1.65,-4.15
1777399326019,1945256,-0.62,-0.37,0.62,4.76,-5.37,-2.75
1777399326019,1945276,-0.64,-0.38,0.65,4.82,-7.26,0.49
1777399326020,1945296,-0.65,-0.38,0.67,4.58,-9.89,2.44
1777399326020,1945306,-0.62,-0.40,0.69,4.27,-10.56,2.38
1777399326020,1945316,-0.68,-0.37,0.69,5.43,-12.33,1.65
1777399326020,1945326,-0.65,-0.38,0.67,5.74,-12.82,4.70
1777399326020,1945336,-0.64,-0.38,0.69,2.99,-11.60,4.21
1777399326020,1945346,-0.68,-0.37,0.66,1.22,-11.29,3.91
1777399326020,1945356,-0.63,-0.39,0.68,-1.71,-8.36,5.25
1777399326021,1945366,-0.66,-0.38,0.66,-2.62,-7.39,5.31
1777399326021,1945376,-0.67,-0.38,0.65,-3.11,-5.55,6.16
1777399326021,1945386,-0.70,-0.36,0.64,-4.27,-3.91,5.62
1777399326021,1945396,-0.67,-0.39,0.66,-6.41,-2.32,4.82
1777399326021,1945406,-0.70,-0.36,0.68,-6.29,-3.17,2.32
1777399326021,1945416,-0.71,-0.37,0.64,-4.21,-5.55,3.36
1777399326021,1945426,-0.68,-0.35,0.65,-4.46,-5.55,4.39
1777399326022,1945436,-0.68,-0.35,0.66,-4.33,-7.32,4.88
1777399326022,1945446,-0.69,-0.36,0.63,-3.11,-9.28,6.23
1777399326022,1945456,-0.67,-0.36,0.61,-3.11,-9.34,6.71
1777399326022,1945466,-0.67,-0.35,0.60,-5.07,-7.57,5.62
1777399326022,1945476,-0.68,-0.35,0.60,-6.35,-5.07,4.33
1777399326022,1945486,-0.68,-0.35,0.60,-6.47,-2.87,3.91
1777399326022,1945496,-0.69,-0.35,0.60,-6.04,-1.22,2.38
1777399326023,1945506,-0.70,-0.34,0.59,-5.86,-0.18,0.18
1777399326023,1945516,-0.70,-0.34,0.60,-5.92,0.43,-2.20
1777399326023,1945526,-0.69,-0.34,0.59,-5.07,0.43,-3.17
1777399326023,1945536,-0.66,-0.35,0.57,-4.03,0.79,-3.72
1777399326023,1945546,-0.68,-0.34,0.58,-3.48,1.95,-4.88
1777399326023,1945556,-0.67,-0.34,0.58,-2.44,2.75,-4.64
1777399326023,1945566,-0.66,-0.34,0.57,-1.22,3.05,-4.52
1777399326024,1945586,-0.66,-0.34,0.59,0.79,0.79,-3.91
1777399326024,1945606,-0.66,-0.35,0.59,0.79,-0.61,-4.76
1777399326024,1945626,-0.65,-0.35,0.59,2.20,0.06,-3.66
1777399326024,1945636,-0.65,-0.35,0.58,1.40,2.08,-2.93
1777399326024,1945646,-0.75,-0.37,0.75,-1.16,5.00,-2.56
1777399326024,1945656,-0.69,-0.37,0.71,2.44,-1.53,-1.77
1777399326024,1945666,-0.69,-0.37,0.63,6.96,-7.32,-1.95
1777399326024,1945676,-0.68,-0.36,0.60,6.10,-9.09,-2.32
1777399326025,1945686,-0.69,-0.36,0.63,2.87,-7.26,-2.75
1777399326025,1945696,-0.69,-0.37,0.64,2.75,-6.77,-2.93
1777399326025,1945706,-0.69,-0.37,0.62,3.66,-6.84,-2.87
1777399326025,1945716,-0.68,-0.37,0.62,3.72,-5.98,-2.56
1777399326025,1945726,-0.69,-0.37,0.62,2.99,-4.88,-2.50
1777399326025,1945736,-0.70,-0.37,0.62,2.14,-4.70,-2.56
1777399326025,1945746,-0.70,-0.38,0.63,1.95,-5.43,-2.50
1777399326026,1945756,-0.71,-0.38,0.62,2.50,-6.65,-3.30
1777399326026,1945766,-0.70,-0.37,0.61,2.93,-7.45,-4.58
1777399326026,1945776,-0.67,-0.38,0.62,2.75,-7.32,-5.19
1777399326026,1945786,-0.68,-0.37,0.63,2.81,-6.10,-5.19
1777399326026,1945796,-0.68,-0.37,0.64,2.69,-4.64,-3.97
1777399326026,1945806,-0.68,-0.37,0.63,2.44,-4.27,-3.30
1777399326026,1945816,-0.69,-0.36,0.63,1.83,-4.27,-3.42
1777399326027,1945826,-0.69,-0.36,0.64,1.16,-4.76,-3.72
1777399326027,1945836,-0.69,-0.36,0.64,1.28,-5.25,-3.97
1777399326027,1945846,-0.69,-0.36,0.64,1.59,-5.55,-4.15
1777399326027,1945856,-0.68,-0.35,0.62,1.59,-5.49,-4.27
1777399326027,1945866,-0.68,-0.36,0.62,1.10,-5.00,-4.09
1777399326027,1945876,-0.68,-0.36,0.62,0.85,-4.64,-3.91
1777399326027,1945886,-0.68,-0.36,0.62,1.34,-4.64,-3.60
1777399326028,1945896,-0.69,-0.35,0.62,1.71,-5.74,-3.66
1777399326028,1945906,-0.69,-0.35,0.61,1.89,-7.02,-4.39
1777399326028,1945926,-0.68,-0.34,0.60,0.67,-5.80,-4.39
1777399326028,1945946,-0.68,-0.34,0.61,2.81,-5.19,-4.03
1777399326028,1945966,-0.67,-0.33,0.57,2.56,-5.62,-4.03
1777399326028,1945986,-0.68,-0.35,0.61,1.22,-3.60,-3.48
1777399326028,1945996,-0.68,-0.34,0.58,3.23,-4.46,-3.36
1777399326028,1946006,-0.67,-0.35,0.58,3.23,-3.72,-3.48
1777399326029,1946016,-0.67,-0.35,0.60,2.81,-3.11,-3.78
1777399326029,1946026,-0.67,-0.35,0.61,3.66,-3.66,-3.54
1777399326029,1946036,-0.69,-0.35,0.62,4.33,-5.00,-3.17
1777399326029,1946046,-0.69,-0.35,0.62,5.37,-7.39,-2.99
1777399326029,1946056,-0.68,-0.35,0.60,5.98,-8.73,-3.36
1777399326029,1946066,-0.68,-0.35,0.61,5.55,-8.30,-3.48
1777399326029,1946076,-0.69,-0.36,0.62,5.43,-7.20,-3.66
1777399326029,1946086,-0.69,-0.35,0.63,5.92,-6.96,-4.21
1777399326030,1946096,-0.68,-0.35,0.62,6.71,-7.14,-4.09
1777399326030,1946106,-0.68,-0.36,0.63,7.20,-7.20,-3.54
1777399326030,1946116,-0.69,-0.36,0.66,7.63,-7.81,-3.17
1777399326030,1946126,-0.69,-0.35,0.66,8.73,-9.34,-3.17
1777399326030,1946136,-0.69,-0.35,0.65,9.09,-10.31,-3.60
1777399326030,1946146,-0.70,-0.35,0.65,8.30,-10.07,-4.27
1777399326030,1946156,-0.70,-0.35,0.66,6.77,-9.28,-5.49
1777399326031,1946166,-0.73,-0.29,0.68,4.76,-8.85,-6.84
1777399326031,1946176,-0.66,-0.34,0.69,3.54,-10.74,-3.42
1777399326031,1946186,-0.63,-0.40,0.60,4.21,-11.90,-2.26
1777399326031,1946196,-0.70,-0.32,0.62,2.93,-7.26,-5.13
1777399326031,1946206,-0.67,-0.34,0.67,0.67,-4.88,-3.78
1777399326031,1946216,-0.68,-0.34,0.63,1.22,-6.35,-5.25
1777399326031,1946226,-0.66,-0.35,0.62,2.01,-7.08,-5.43
1777399326031,1946236,-0.66,-0.34,0.62,1.28,-6.10,-5.68
1777399326032,1946246,-0.67,-0.34,0.63,0.67,-5.62,-5.92
1777399326032,1946256,-0.67,-0.35,0.63,1.28,-5.80,-5.31
1777399326032,1946276,-0.67,-0.34,0.63,2.93,-7.39,-4.82
1777399326032,1946296,-0.69,-0.34,0.64,3.05,-7.20,-4.52
1777399326032,1946316,-0.69,-0.34,0.63,2.56,-6.59,-5.74
1777399326032,1946326,-0.68,-0.34,0.64,2.01,-5.98,-6.53
1777399326032,1946336,-0.67,-0.33,0.63,1.65,-5.25,-7.02
1777399326032,1946346,-0.67,-0.34,0.62,1.22,-4.64,-6.84
1777399326033,1946356,-0.67,-0.34,0.62,1.10,-3.78,-6.47
1777399326033,1946366,-0.68,-0.34,0.63,1.40,-3.23,-6.35
1777399326033,1946376,-0.68,-0.34,0.63,1.83,-3.72,-6.65
1777399326033,1946386,-0.67,-0.34,0.62,2.44,-4.46,-6.77
1777399326033,1946396,-0.68,-0.34,0.62,2.69,-5.07,-6.84
1777399326033,1946406,-0.68,-0.34,0.63,2.99,-5.49,-7.20
1777399326033,1946416,-0.68,-0.34,0.63,3.60,-6.23,-7.87
1777399326033,1946426,-0.67,-0.35,0.63,4.33,-6.47,-8.18
1777399326034,1946436,-0.67,-0.35,0.63,4.88,-5.86,-7.87
1777399326034,1946446,-0.67,-0.34,0.64,4.33,-4.94,-7.63
1777399326034,1946456,-0.67,-0.34,0.65,2.93,-4.76,-7.45
1777399326034,1946466,-0.70,-0.32,0.65,2.38,-4.64,-6.90
1777399326034,1946476,-0.67,-0.37,0.64,1.89,-4.46,-4.88
1777399326034,1946486,-0.68,-0.36,0.63,0.92,-4.09,-6.41
1777399326034,1946496,-0.68,-0.34,0.64,0.92,-3.05,-6.90
1777399326034,1946506,-0.68,-0.35,0.64,1.16,-2.38,-5.92
1777399326035,1946516,-0.69,-0.36,0.64,1.77,-2.75,-6.35
1777399326035,1946526,-0.69,-0.35,0.63,1.77,-2.93,-7.08
1777399326035,1946536,-0.68,-0.35,0.64,1.34,-3.30,-7.63
1777399326035,1946546,-0.67,-0.35,0.63,1.28,-4.09,-7.69
1777399326035,1946556,-0.66,-0.36,0.62,1.40,-4.70,-7.39
1777399326035,1946566,-0.66,-0.36,0.61,1.65,-4.33,-7.32
1777399326035,1946576,-0.66,-0.35,0.61,1.95,-3.60,-7.08
1777399326036,1946586,-0.67,-0.36,0.62,1.83,-3.23,-5.92
1777399326036,1946596,-0.66,-0.37,0.62,1.59,-3.36,-5.68
1777399326036,1946616,-0.69,-0.36,0.64,-0.06,-1.04,-7.69
1777399326036,1946636,-0.68,-0.39,0.61,-3.05,8.97,-10.07
1777399326036,1946656,-0.72,-0.35,0.67,-6.16,15.32,-12.51
1777399326036,1946676,-0.73,-0.39,0.70,-3.72,-0.85,-5.86
1777399326036,1946686,-0.71,-0.41,0.67,-7.32,-8.85,-4.52
1777399326036,1946696,-0.73,-0.44,0.63,-12.70,-11.96,-4.33
1777399326037,1946706,-0.75,-0.39,0.61,-14.34,-10.86,-5.19
1777399326037,1946716,-0.73,-0.40,0.61,-13.43,-9.34,-2.87
1777399326037,1946726,-0.74,-0.44,0.57,-14.34,-7.02,-0.98
1777399326037,1946736,-0.76,-0.47,0.54,-20.32,-0.67,-3.85
1777399326037,1946746,-0.73,-0.47,0.51,-28.08,7.39,-9.64
1777399326037,1946756,-0.62,-0.53,0.68,-31.92,13.00,-13.31
1777399326037,1946766,-0.66,-0.46,0.62,-34.00,13.85,-17.88
1777399326038,1946776,-0.66,-0.38,0.50,-29.97,15.81,-17.88
1777399326038,1946786,-0.67,-0.25,0.56,-41.75,26.86,-11.66
1777399326038,1946796,-0.64,-0.23,0.78,-80.08,35.83,-2.08
1777399326038,1946806,-0.73,-0.25,0.82,-135.56,31.07,5.19
1777399326038,1946816,-0.77,-0.34,0.61,-164.86,15.81,9.95
1777399326038,1946826,-0.75,-0.48,0.39,-161.19,6.90,14.95
1777399326038,1946836,-0.73,-0.57,0.37,-145.51,9.77,16.72
1777399326038,1946846,-0.72,-0.60,0.44,-119.32,15.44,17.09
1777399326039,1946856,-0.72,-0.60,0.46,-92.83,18.19,14.95
1777399326039,1946866,-0.68,-0.58,0.42,-77.70,19.78,10.25
1777399326039,1946876,-0.68,-0.49,0.42,-71.66,23.44,6.96
1777399326039,1946886,-0.65,-0.48,0.37,-69.52,26.92,9.16
1777399326039,1946896,-0.68,-0.49,0.38,-68.79,31.31,14.16
1777399326039,1946906,-0.74,-0.51,0.40,-65.98,32.17,19.65
1777399326039,1946916,-0.78,-0.53,0.40,-58.29,28.38,23.62
1777399326040,1946926,-0.79,-0.56,0.38,-46.81,22.64,26.49
1777399326040,1946936,-0.83,-0.49,0.36,-38.02,18.86,25.57
1777399326040,1946946,-0.82,-0.46,0.39,-37.05,17.76,26.25
1777399326040,1946966,-0.80,-0.66,0.44,-33.69,15.56,17.27
1777399326040,1946986,-0.82,-0.55,0.28,0.37,20.20,4.76
1777399326040,1947006,-0.76,-0.57,0.29,18.68,27.65,-3.72
1777399326040,1947026,-0.59,-0.27,0.34,50.90,28.69,-7.20
1777399326040,1947036,-0.65,-0.31,0.11,63.72,23.25,2.26
1777399326041,1947046,-0.79,-0.36,0.33,74.71,21.55,11.17
1777399326041,1947056,-0.88,-0.40,0.57,73.85,10.56,11.96
1777399326041,1947066,-0.84,-0.35,0.51,55.97,-6.53,3.48
1777399326041,1947076,-0.77,-0.29,0.43,25.82,-16.85,-3.60
1777399326041,1947086,-0.75,-0.36,0.41,5.68,-19.17,-0.98
1777399326041,1947096,-0.72,-0.40,0.40,-0.67,-16.97,5.55
1777399326041,1947106,-0.56,-0.25,0.43,-8.48,-11.66,11.60
1777399326041,1947116,-0.59,-0.08,0.38,-59.81,4.88,42.85
1777399326042,1947126,-0.96,-0.66,0.81,-162.72,19.53,87.22
1777399326042,1947136,-0.88,-0.56,0.28,-120.97,-12.94,51.39
1777399326042,1947146,-0.98,-0.42,0.13,-55.54,-12.88,43.76
1777399326042,1947156,-0.73,-0.22,0.22,-16.97,-2.93,43.52
1777399326042,1947166,-0.77,-0.23,0.49,-45.59,12.15,49.93
1777399326042,1947176,-0.88,-0.23,0.58,-70.80,10.74,56.64
1777399326042,1947186,-0.92,-0.30,0.49,-82.89,0.06,64.82
1777399326042,1947196,-0.89,-0.40,0.42,-89.90,-6.84,73.55
1777399326043,1947206,-0.85,-0.51,0.33,-92.96,-10.68,78.06
1777399326043,1947216,-0.86,-0.49,0.31,-90.64,-8.91,77.15
1777399326043,1947226,-0.85,-0.52,0.25,-88.44,-4.94,76.72
1777399326043,1947236,-0.88,-0.54,0.20,-81.54,1.83,76.97
1777399326043,1947246,-0.87,-0.58,0.15,-67.08,10.68,73.30
1777399326043,1947256,-0.88,-0.57,0.11,-49.87,20.14,64.21
1777399326043,1947266,-0.94,-0.49,0.19,-36.93,31.19,53.28
1777399326044,1947276,-1.01,-0.33,0.34,-30.21,35.16,44.98
1777399326044,1947286,-0.95,-0.29,0.12,-23.74,31.25,42.72
1777399326044,1947306,-0.96,-0.35,0.13,-25.45,45.17,31.68
1777399326044,1947326,-0.87,-0.37,0.12,-28.93,40.59,26.98
1777399326044,1947346,-0.90,-0.32,0.20,-20.87,38.27,19.96
1777399326044,1947366,-0.92,-0.14,0.28,-2.20,21.30,6.10
1777399326044,1947376,-0.88,-0.23,0.18,6.65,8.12,2.81
1777399326044,1947386,-0.90,-0.00,0.27,9.46,-1.65,-1.89
1777399326044,1947396,-0.80,-0.10,0.16,5.68,-12.51,5.55
1777399326045,1947406,-0.83,-0.32,0.00,-3.48,-14.10,9.34
1777399326045,1947416,-0.89,-0.23,-0.03,-10.68,-3.30,0.49
1777399326045,1947426,-0.81,-0.18,-0.01,-16.24,9.03,-1.77
1777399326045,1947436,-0.81,-0.20,0.01,-14.83,17.94,1.22
1777399326045,1947446,-0.89,-0.23,-0.00,-12.21,25.57,2.69
1777399326045,1947456,-0.87,-0.27,0.17,-14.34,31.56,2.20
1777399326045,1947466,-0.85,-0.30,0.26,-18.80,27.59,1.77
1777399326046,1947476,-0.81,-0.29,0.20,-22.16,16.11,2.99
1777399326046,1947486,-0.98,-0.10,0.33,-32.10,6.90,8.85
1777399326046,1947496,-0.75,-0.31,0.17,-44.01,-9.46,21.18
1777399326046,1947506,-0.87,-0.25,0.17,-54.50,-16.36,22.52
1777399326046,1947516,-1.15,-0.29,0.79,-51.09,-22.03,24.48
1777399326046,1947526,-0.95,-0.24,-0.16,-43.27,-45.65,25.88
1777399326046,1947536,-1.00,-0.25,0.07,-91.00,-33.87,14.22
1777399326046,1947546,-1.03,-0.32,0.08,-71.53,-22.52,9.77
1777399326047,1947556,-0.98,-0.25,0.16,-43.33,-22.77,4.21
1777399326047,1947566,-0.97,-0.20,0.08,-39.06,-25.15,4.94
1777399326047,1947576,-0.95,-0.17,0.04,-35.03,-23.50,9.22
1777399326047,1947586,-0.98,-0.21,0.00,-26.55,-19.53,12.33
1777399326047,1947596,-1.03,-0.28,-0.00,-19.96,-15.01,11.78
1777399326047,1947606,-1.05,-0.26,0.08,-8.48,-11.54,9.40
1777399326047,1947616,-1.00,-0.22,0.02,-0.18,-9.58,5.25
1777399326047,1947626,-0.99,-0.25,0.05,-6.41,-4.76,1.83
1777399326048,1947636,-0.99,-0.40,0.16,-10.68,-1.46,-14.77
1777399326048,1947656,-0.87,-0.41,0.19,-17.94,-14.16,-31.92
1777399326048,1947676,-0.99,-0.20,0.06,-11.66,-27.71,-29.30
1777399326048,1947696,-0.98,-0.15,0.02,-11.29,-27.95,-27.16
1777399326048,1947716,-0.95,-0.14,0.08,-4.70,-19.29,-16.30
1777399326048,1947726,-0.91,-0.22,0.10,-3.36,-15.56,-9.34
1777399326048,1947736,-0.92,-0.27,0.14,4.70,-14.71,-3.36
1777399326048,1947746,-0.96,-0.27,0.19,6.53,-17.52,-3.85
1777399326049,1947756,-0.95,-0.34,0.23,3.30,-20.69,-4.21
1777399326049,1947766,-0.93,-0.38,0.24,6.96,-26.18,-6.35
1777399326049,1947776,-0.92,-0.32,0.20,12.94,-34.30,-10.01
1777399326049,1947786,-0.92,-0.28,0.16,14.34,-39.73,-12.39
1777399326049,1947796,-0.91,-0.26,0.10,10.38,-40.16,-13.31
1777399326049,1947806,-0.90,-0.27,0.09,3.91,-37.05,-13.12
1777399326049,1947816,-0.90,-0.29,0.11,-2.32,-32.35,-12.70
1777399326049,1947826,-0.90,-0.28,0.13,-6.29,-26.86,-12.88
1777399326049,1947836,-0.91,-0.27,0.15,-9.40,-19.84,-14.10
1777399326050,1947846,-0.93,-0.28,0.17,-12.02,-12.45,-16.24
1777399326050,1947856,-0.96,-0.35,0.18,-13.12,-8.12,-17.52
1777399326050,1947866,-0.94,-0.31,0.23,-9.16,-8.36,-19.17
1777399326050,1947876,-0.85,-0.27,0.27,-11.29,-9.83,-22.52
1777399326050,1947886,-0.79,-0.35,0.11,-48.22,5.86,-14.89
1777399326050,1947896,-0.83,-0.26,0.10,-59.39,24.23,-6.29
1777399326050,1947906,-0.95,-0.22,0.14,-54.08,34.24,-1.53
1777399326051,1947916,-0.99,-0.23,0.18,-53.47,30.58,-2.08
1777399326051,1947926,-0.96,-0.26,0.17,-57.62,21.12,-2.93
1777399326051,1947936,-0.96,-0.27,0.18,-61.22,10.80,-3.11
1777399326051,1947946,-0.98,-0.32,0.18,-62.38,2.75,-2.81
1777399326051,1947956,-0.97,-0.37,0.18,-59.33,-6.35,-5.13
1777399326051,1947966,-0.94,-0.37,0.18,-48.95,-15.14,-9.89
1777399326051,1947976,-0.92,-0.37,0.17,-39.49,-23.50,-30.70
1777399326051,1947996,-0.96,-0.40,0.15,-16.48,-14.89,-15.63
1777399326052,1948016,-0.81,-0.48,0.08,-23.01,-0.98,-7.63
1777399326052,1948036,-0.99,-0.42,0.09,-9.70,11.17,-0.61
1777399326052,1948056,-0.91,-0.35,0.08,-6.90,5.80,-3.78
1777399326052,1948066,-0.91,-0.30,0.07,-8.42,9.03,-6.59
1777399326052,1948076,-0.91,-0.30,0.07,-14.16,12.88,-8.54
1777399326052,1948086,-0.95,-0.41,0.10,-25.09,15.75,-11.72
1777399326052,1948096,-0.92,-0.39,0.10,-35.40,27.59,-21.30
1777399326052,1948106,-0.83,-0.39,0.15,-17.82,61.04,-25.88
1777399326052,1948116,-0.84,-0.28,0.15,13.18,97.84,-31.19
1777399326053,1948126,-0.89,-0.28,0.02,16.36,102.97,-37.05
1777399326053,1948136,-0.89,-0.26,-0.00,10.68,107.67,-41.14
1777399326053,1948146,-0.93,-0.30,-0.03,-1.28,107.48,-43.76
1777399326053,1948156,-0.89,-0.29,-0.05,-13.79,101.62,-46.57
1777399326053,1948166,-0.88,-0.31,-0.04,-19.29,93.26,-46.69
1777399326053,1948176,-0.86,-0.36,-0.04,-16.72,79.35,-45.17
1777399326053,1948186,-0.84,-0.35,-0.02,-10.68,62.44,-44.13
1777399326053,1948196,-0.85,-0.34,0.01,-3.85,45.59,-42.97
1777399326054,1948206,-0.90,-0.31,0.01,-0.24,31.07,-43.88
1777399326054,1948216,-0.93,-0.34,-0.00,-0.06,22.28,-42.91
1777399326054,1948226,-0.95,-0.37,-0.03,-1.22,20.08,-40.59
1777399326054,1948236,-0.94,-0.38,-0.04,-1.95,23.93,-38.39
1777399326054,1948246,-0.94,-0.44,-0.06,-0.18,29.91,-35.03
1777399326054,1948256,-0.90,-0.36,-0.10,2.50,35.28,-34.85
1777399326054,1948266,-0.91,-0.38,-0.11,8.12,40.22,-31.07
1777399326054,1948276,-0.88,-0.32,-0.13,11.05,42.66,-30.03
1777399326055,1948286,-0.87,-0.31,-0.15,13.12,42.54,-25.76
1777399326055,1948296,-0.87,-0.32,-0.16,16.85,39.12,-21.36
1777399326055,1948306,-0.85,-0.30,-0.17,20.20,33.26,-17.82
1777399326055,1948316,-0.87,-0.31,-0.17,21.24,25.21,-12.94
1777399326055,1948326,-0.85,-0.32,-0.18,20.39,16.11,-8.42
1777399326055,1948346,-0.83,-0.36,-0.20,12.45,0.12,-13.61
1777399326055,1948366,-0.86,-0.45,-0.20,-1.40,5.31,-20.02
1777399326056,1948386,-0.87,-0.51,-0.17,-13.55,14.77,-28.69
1777399326056,1948406,-0.87,-0.55,-0.16,-22.95,20.08,-35.89
1777399326056,1948416,-0.86,-0.58,-0.16,-25.57,21.55,-37.84
1777399326056,1948426,-0.85,-0.59,-0.16,-26.49,22.46,-38.70
1777399326056,1948436,-0.83,-0.60,-0.18,-26.55,22.34,-38.70
1777399326056,1948446,-0.81,-0.58,-0.20,-27.34,21.42,-38.09
1777399326056,1948456,-0.79,-0.57,-0.21,-30.09,20.45,-36.74
1777399326056,1948466,-0.78,-0.57,-0.22,-34.79,20.45,-34.55
1777399326057,1948476,-0.77,-0.58,-0.21,-39.06,21.79,-31.56
1777399326057,1948486,-0.75,-0.59,-0.22,-37.96,23.32,-28.14
1777399326057,1948496,-0.75,-0.60,-0.23,-31.68,23.07,-25.57
1777399326057,1948506,-0.74,-0.57,-0.23,-24.05,21.73,-23.99
1777399326057,1948516,-0.72,-0.57,-0.25,-19.47,19.59,-21.61
1777399326057,1948526,-0.70,-0.55,-0.25,-16.85,15.01,-19.84
1777399326057,1948536,-0.70,-0.54,-0.25,-14.89,9.16,-17.33
1777399326057,1948546,-0.70,-0.53,-0.25,-13.43,2.50,-15.08
1777399326057,1948556,-0.70,-0.52,-0.25,-12.21,-3.30,-13.18
1777399326058,1948566,-0.71,-0.50,-0.26,-10.86,-7.32,-11.29
1777399326058,1948576,-0.71,-0.50,-0.26,-8.91,-9.77,-9.77
1777399326058,1948586,-0.72,-0.49,-0.25,-5.19,-11.54,-8.42
1777399326058,1948596,-0.75,-0.48,-0.25,-1.10,-13.00,-6.59
1777399326058,1948606,-0.76,-0.45,-0.27,1.83,-14.40,-4.27
1777399326058,1948616,-0.75,-0.44,-0.29,3.48,-15.99,-2.01
1777399326058,1948626,-0.75,-0.44,-0.30,4.70,-17.64,-0.49
1777399326058,1948636,-0.76,-0.43,-0.31,6.47,-19.47,0.31
1777399326059,1948646,-0.78,-0.41,-0.32,7.14,-20.69,-0.55
1777399326059,1948656,-0.80,-0.40,-0.34,4.76,-21.85,-1.10
1777399326059,1948666,-0.81,-0.41,-0.35,2.38,-22.46,-0.67
1777399326059,1948686,-0.84,-0.43,-0.32,1.83,-25.02,0.92
1777399326059,1948706,-0.87,-0.46,-0.27,0.24,-29.85,0.00
1777399326059,1948726,-0.92,-0.45,-0.22,4.09,-24.17,2.99
1777399326059,1948746,-0.92,-0.45,-0.21,15.26,-17.09,4.46
1777399326059,1948756,-0.93,-0.47,-0.22,18.31,-13.79,2.69
1777399326059,1948766,-0.93,-0.49,-0.23,19.41,-10.68,1.83
1777399326060,1948776,-0.92,-0.50,-0.24,18.92,-7.81,1.46
1777399326060,1948786,-0.91,-0.50,-0.24,17.27,-4.64,0.31
1777399326060,1948796,-0.90,-0.51,-0.25,13.85,-1.95,-1.40
1777399326060,1948806,-0.89,-0.52,-0.25,10.44,0.24,-2.62
1777399326060,1948816,-0.88,-0.52,-0.24,8.18,2.38,-3.60
1777399326060,1948826,-0.86,-0.52,-0.23,7.39,4.21,-4.03
1777399326060,1948836,-0.85,-0.51,-0.22,7.39,5.25,-4.21
1777399326060,1948846,-0.83,-0.50,-0.22,7.32,5.19,-4.09
1777399326060,1948856,-0.81,-0.50,-0.22,7.08,4.52,-4.21
1777399326061,1948866,-0.79,-0.50,-0.22,6.47,3.72,-4.76
1777399326061,1948876,-0.78,-0.50,-0.22,5.92,2.81,-5.49
1777399326061,1948886,-0.76,-0.50,-0.21,6.47,2.08,-6.41
1777399326061,1948896,-0.76,-0.50,-0.21,8.00,0.98,-7.81
1777399326061,1948906,-0.75,-0.50,-0.22,9.77,-0.49,-8.79
1777399326061,1948916,-0.75,-0.49,-0.22,11.35,-2.01,-9.64
1777399326061,1948926,-0.75,-0.49,-0.21,12.27,-3.23,-10.01
1777399326061,1948936,-0.74,-0.49,-0.21,12.57,-4.27,-10.50
1777399326061,1948946,-0.73,-0.48,-0.21,13.49,-5.68,-10.99
1777399326062,1948956,-0.73,-0.48,-0.21,15.32,-7.51,-11.78
1777399326062,1948966,-0.74,-0.48,-0.21,16.54,-9.83,-13.79
1777399326062,1948976,-0.74,-0.50,-0.21,16.11,-11.90,-16.48
1777399326062,1948986,-0.76,-0.53,-0.19,15.20,-13.24,-19.53
1777399326062,1948996,-0.78,-0.55,-0.18,15.20,-14.10,-22.22
1777399326062,1949006,-0.81,-0.56,-0.18,15.87,-14.95,-23.44
1777399326062,1949016,-0.83,-0.56,-0.18,16.11,-16.11,-18.68
1777399326062,1949036,-0.84,-0.58,-0.16,19.29,-19.78,-10.31
1777399326063,1949056,-0.84,-0.56,-0.15,20.87,-22.28,-3.23
1777399326063,1949076,-0.80,-0.55,-0.14,24.11,-20.57,-1.53
1777399326063,1949096,-0.80,-0.54,-0.16,25.63,-16.91,-6.65
1777399326063,1949106,-0.81,-0.55,-0.16,24.90,-14.53,-9.09
1777399326063,1949116,-0.81,-0.55,-0.16,22.83,-11.84,-11.29
1777399326063,1949126,-0.81,-0.56,-0.16,20.08,-9.58,-12.94
1777399326063,1949136,-0.81,-0.56,-0.15,17.70,-8.30,-13.73
1777399326063,1949146,-0.81,-0.56,-0.15,16.72,-7.69,-13.18
1777399326063,1949156,-0.80,-0.55,-0.14,17.40,-7.81,-11.66
1777399326064,1949166,-0.79,-0.55,-0.14,18.19,-8.36,-10.01
1777399326064,1949176,-0.78,-0.54,-0.15,19.10,-9.16,-8.73
1777399326064,1949186,-0.77,-0.54,-0.15,20.32,-10.13,-8.24
1777399326064,1949196,-0.76,-0.52,-0.15,22.52,-11.17,-8.48
1777399326064,1949206,-0.76,-0.51,-0.16,24.84,-12.21,-9.03
1777399326064,1949216,-0.76,-0.49,-0.16,25.88,-13.06,-9.83
1777399326064,1949226,-0.77,-0.49,-0.15,25.82,-13.98,-10.68
1777399326064,1949236,-0.77,-0.49,-0.15,25.88,-14.71,-11.35
1777399326065,1949246,-0.77,-0.48,-0.15,26.86,-15.14,-12.21
1777399326065,1949256,-0.77,-0.49,-0.15,28.32,-15.32,-13.06
1777399326065,1949266,-0.78,-0.51,-0.14,30.64,-15.44,-14.04
1777399326065,1949276,-0.80,-0.51,-0.14,34.91,-15.56,-15.20
1777399326065,1949286,-0.81,-0.49,-0.14,38.33,-15.99,-16.17
1777399326065,1949296,-0.82,-0.48,-0.15,39.55,-17.03,-16.42
1777399326065,1949306,-0.82,-0.47,-0.16,39.06,-17.82,-16.24
1777399326065,1949316,-0.83,-0.47,-0.17,36.99,-17.76,-15.99
1777399326065,1949326,-0.84,-0.47,-0.16,33.81,-17.21,-15.44
1777399326066,1949336,-0.85,-0.49,-0.14,30.52,-16.97,-14.71
1777399326066,1949346,-0.85,-0.51,-0.12,27.59,-17.27,-14.10
1777399326066,1949356,-0.85,-0.53,-0.11,26.06,-16.60,-13.79
1777399326066,1949376,-0.85,-0.55,-0.08,28.93,-12.76,-12.82
1777399326066,1949396,-0.84,-0.55,-0.08,27.83,-10.44,-15.26
1777399326066,1949416,-0.83,-0.59,-0.07,22.95,-7.14,-16.54
1777399326066,1949436,-0.83,-0.63,-0.04,16.97,-5.31,-17.03
1777399326066,1949446,-0.82,-0.65,-0.03,16.66,-5.07,-16.17
1777399326066,1949456,-0.80,-0.65,-0.02,18.55,-4.82,-14.77
1777399326067,1949466,-0.78,-0.65,-0.02,21.85,-4.27,-14.04
1777399326067,1949476,-0.78,-0.66,-0.02,26.06,-3.85,-13.85
1777399326067,1949486,-0.77,-0.65,-0.03,30.27,-3.36,-13.79
1777399326067,1949496,-0.75,-0.65,-0.03,33.45,-3.78,-13.73
1777399326067,1949506,-0.75,-0.63,-0.04,34.91,-5.49,-15.14
1777399326067,1949516,-0.75,-0.62,-0.04,34.42,-7.57,-17.27
1777399326067,1949526,-0.74,-0.60,-0.03,32.78,-9.52,-18.43
1777399326067,1949536,-0.74,-0.60,-0.02,31.68,-10.68,-19.04
1777399326068,1949546,-0.73,-0.62,0.02,32.35,-10.80,-19.90
1777399326068,1949556,-0.72,-0.63,0.03,35.34,-11.41,-21.30
1777399326068,1949566,-0.72,-0.62,0.04,39.49,-12.82,-23.32
1777399326068,1949576,-0.72,-0.61,0.03,42.60,-14.47,-25.39
1777399326068,1949586,-0.71,-0.60,0.02,44.13,-15.93,-27.10
1777399326068,1949596,-0.70,-0.58,0.01,45.04,-17.15,-28.56
1777399326068,1949606,-0.70,-0.58,0.02,45.04,-18.92,-30.46
1777399326068,1949616,-0.70,-0.57,0.04,43.88,-22.03,-33.14
1777399326068,1949626,-0.69,-0.58,0.08,43.70,-26.00,-35.64
1777399326069,1949636,-0.68,-0.61,0.10,46.33,-30.21,-38.82
1777399326069,1949646,-0.85,-0.69,0.09,49.93,-34.91,-43.70
1777399326069,1949656,-0.73,-0.55,0.13,61.77,-44.43,-60.73
1777399326069,1949666,-0.61,-0.60,0.13,67.38,-60.49,-70.31
1777399326069,1949676,-0.62,-0.65,0.12,65.25,-71.47,-70.80
1777399326069,1949686,-0.65,-0.66,0.10,62.19,-74.34,-68.79
1777399326069,1949696,-0.65,-0.67,0.10,57.43,-72.45,-64.39
1777399326069,1949706,-0.63,-0.69,0.11,48.28,-69.52,-60.79
1777399326069,1949726,-0.59,-0.71,0.13,24.35,-59.63,-65.19
1777399326070,1949746,-0.56,-0.60,0.18,18.74,-57.13,-75.44
1777399326070,1949766,-0.50,-0.58,0.21,-0.79,-62.07,-94.48
1777399326070,1949786,-0.44,-0.63,0.29,-22.83,-71.11,-123.11
1777399326070,1949796,-0.40,-0.74,0.30,-25.51,-73.06,-134.34
1777399326070,1949806,-0.29,-0.79,0.23,-15.75,-73.67,-138.61
1777399326070,1949816,-0.32,-0.96,0.24,5.55,-70.07,-125.79
1777399326070,1949826,-0.44,-1.01,0.28,29.24,-70.56,-114.20
1777399326070,1949836,-0.51,-0.96,0.32,40.10,-81.85,-108.95
1777399326070,1949846,-0.49,-0.91,0.34,29.60,-99.24,-102.11
1777399326071,1949856,-0.40,-0.91,0.35,16.17,-111.02,-97.72
1777399326071,1949866,-0.30,-0.93,0.33,9.40,-109.62,-98.33
1777399326071,1949876,-0.26,-0.91,0.32,13.24,-98.14,-102.91
1777399326071,1949886,-0.27,-0.85,0.36,21.00,-84.53,-110.90
1777399326071,1949896,-0.29,-0.86,0.40,32.29,-76.84,-113.77
1777399326071,1949906,-0.35,-0.87,0.47,36.01,-75.44,-115.23
1777399326071,1949916,-0.31,-0.89,0.51,33.57,-83.62,-115.17
1777399326071,1949926,-0.23,-0.92,0.53,40.28,-93.81,-110.23
1777399326072,1949936,-0.11,-0.95,0.50,56.09,-105.47,-106.51
1777399326072,1949946,-0.10,-1.06,0.48,73.30,-120.12,-112.00
1777399326072,1949956,-0.55,-0.91,0.35,88.50,-129.46,-122.19
1777399326072,1949966,-0.46,-0.90,0.31,93.81,-122.62,-102.42
1777399326072,1949976,-0.28,-0.71,0.27,86.06,-102.17,-75.26
1777399326072,1949986,-0.20,-0.68,0.31,66.41,-77.94,-52.98
1777399326072,1949996,-0.15,-0.70,0.41,40.65,-60.67,-38.70
1777399326072,1950006,-0.08,-0.76,0.53,21.73,-48.95,-33.33
1777399326072,1950016,-0.03,-0.76,0.58,11.35,-44.68,-35.03
1777399326073,1950026,-0.02,-0.86,0.58,8.67,-39.73,-39.92
1777399326073,1950036,-0.05,-1.24,0.92,15.75,-36.01,-44.25
1777399326073,1950046,0.16,-1.29,0.85,53.83,-42.66,-47.67
1777399326073,1950066,-0.21,-0.89,0.49,112.98,-21.91,-19.23
1777399326073,1950086,-0.13,-0.87,0.59,41.26,-13.24,11.84
1777399326073,1950106,0.08,-0.80,0.67,30.76,-26.18,14.04
1777399326073,1950126,0.08,-0.71,0.64,52.31,-36.19,-16.48
1777399326073,1950136,0.10,-0.77,0.60,49.87,-39.43,-36.44
1777399326073,1950146,0.04,-0.75,0.68,41.87,-36.74,-50.48
1777399326074,1950156,-0.00,-0.75,0.71,39.43,-35.52,-54.63
1777399326074,1950166,-0.04,-0.76,0.70,36.99,-35.03,-50.54
1777399326074,1950176,-0.03,-0.75,0.66,28.87,-31.43,-46.02
1777399326074,1950186,-0.03,-0.77,0.63,22.83,-26.31,-41.02
1777399326074,1950196,-0.01,-0.78,0.61,13.61,-19.71,-35.40
1777399326074,1950206,-0.02,-0.78,0.61,4.64,-14.10,-30.88
1777399326074,1950216,-0.01,-0.79,0.64,-6.84,-8.79,-26.12
1777399326074,1950226,0.04,-0.78,0.62,-15.56,-4.64,-20.32
1777399326075,1950236,0.10,-0.77,0.58,-21.67,-3.17,-17.52
1777399326075,1950246,0.10,-0.79,0.57,-26.18,-4.03,-19.41
1777399326075,1950256,0.08,-0.77,0.60,-25.70,-8.42,-22.95
1777399326075,1950266,0.10,-0.77,0.66,-21.55,-14.83,-24.48
1777399326075,1950276,0.08,-0.74,0.68,-14.77,-18.43,-27.10
1777399326075,1950286,0.05,-0.76,0.71,-11.66,-14.83,-30.03
1777399326075,1950296,0.04,-0.74,0.69,-7.14,-9.46,-29.72
1777399326075,1950306,0.10,-0.74,0.64,0.49,-5.13,-28.08
1777399326075,1950316,0.10,-0.72,0.69,6.16,-3.05,-28.50
1777399326076,1950326,0.10,-0.75,0.59,10.56,-0.49,-31.19
1777399326076,1950336,0.11,-0.73,0.66,9.64,3.91,-36.01
1777399326076,1950346,0.10,-0.78,0.59,14.28,2.99,-36.07
1777399326076,1950356,0.07,-0.78,0.60,14.47,3.66,-35.58
1777399326076,1950366,0.08,-0.78,0.62,14.53,2.81,-31.31
1777399326076,1950376,0.10,-0.77,0.59,17.52,0.98,-28.93
1777399326076,1950386,0.09,-0.77,0.64,16.91,-0.24,-28.56
1777399326076,1950396,0.10,-0.77,0.63,18.49,-1.53,-27.53
1777399326077,1950416,0.11,-0.77,0.65,13.24,6.53,-28.69
1777399326077,1950436,0.14,-0.76,0.64,11.23,4.46,-27.65
1777399326077,1950456,0.06,-0.81,0.61,-1.28,6.16,-24.41
1777399326077,1950476,0.11,-0.80,0.61,-14.59,6.41,-7.63
1777399326077,1950486,0.13,-0.79,0.61,-19.04,5.07,-2.69
1777399326077,1950496,0.18,-0.68,0.68,-15.75,4.52,-0.61
1777399326077,1950506,0.30,-0.39,0.86,11.54,8.42,-3.17
1777399326077,1950516,0.51,-0.17,0.98,73.36,23.80,-8.06
1777399326077,1950526,0.33,-0.33,0.99,167.05,37.90,-0.37
1777399326077,1950536,-0.07,-0.60,1.02,275.82,51.21,9.64
1777399326078,1950546,-0.26,-0.65,0.91,308.65,49.44,-1.10
1777399326078,1950556,-0.14,-0.69,0.61,241.46,-0.18,-2.56
1777399326078,1950566,-0.06,-0.79,0.53,149.11,-46.20,18.49
1777399326078,1950576,-0.06,-0.88,0.50,64.39,-80.20,42.30
1777399326078,1950586,-0.02,-0.83,0.52,-4.46,-88.81,50.66
1777399326078,1950596,0.04,-0.75,0.58,-32.59,-67.50,54.63
1777399326078,1950606,0.10,-0.70,0.61,-24.35,-28.38,58.84
1777399326078,1950616,0.15,-0.64,0.62,-10.44,14.89,56.76
1777399326078,1950626,0.21,-0.60,0.64,-3.85,49.01,48.95
1777399326078,1950636,0.21,-0.57,0.69,-4.94,64.39,35.89
1777399326079,1950646,0.18,-0.53,0.71,-12.21,59.14,19.04
1777399326079,1950656,0.15,-0.47,0.70,-25.02,40.10,2.62
1777399326079,1950666,0.11,-0.44,0.65,-40.83,18.55,-10.38
1777399326079,1950676,0.04,-0.45,0.55,-59.94,3.48,-16.85
1777399326079,1950686,0.02,-0.82,1.11,-62.13,10.93,-7.26
1777399326079,1950696,-0.17,-0.25,0.57,81.67,105.47,36.38
1777399326079,1950706,0.39,-0.70,1.20,114.44,63.66,-3.66
1777399326079,1950716,0.14,-0.34,0.82,184.57,55.73,-10.13
1777399326079,1950726,0.07,-0.55,0.98,211.98,50.23,-1.53
1777399326079,1950736,-0.00,-0.58,0.83,202.58,29.66,-6.84
1777399326080,1950746,-0.04,-0.48,0.91,181.88,-14.28,-26.55
1777399326080,1950766,-0.02,-0.58,0.92,124.33,-34.12,-26.37
1777399326080,1950786,-0.14,-0.46,0.93,119.69,-19.29,-10.86
1777399326080,1950806,-0.03,-0.42,0.92,98.63,-5.92,-6.16
1777399326080,1950816,0.02,-0.39,0.89,86.30,-1.46,-4.94
1777399326080,1950826,0.03,-0.33,0.88,87.04,-1.10,-2.62
1777399326080,1950836,-0.03,-0.37,0.87,94.48,-2.08,-0.31
1777399326080,1950846,-0.09,-0.37,0.95,109.92,-0.92,-5.62
1777399326080,1950856,-0.10,-0.29,0.80,147.89,-0.43,-13.61
1777399326081,1950866,-0.10,-0.24,0.71,202.76,-2.32,-15.32
1777399326081,1950876,-0.10,-0.23,0.69,265.62,-3.42,-10.93
1777399326081,1950886,-0.07,-0.21,0.68,331.60,-4.15,-5.43
1777399326081,1950896,-0.05,-0.17,1.19,389.53,-4.33,-4.88
1777399326081,1950906,0.22,0.05,1.01,227.23,-2.50,-7.69
1777399326081,1950916,0.11,0.05,1.16,0.67,-4.88,-12.21
1777399326081,1950926,0.12,0.02,1.01,2.56,-4.46,-11.78
1777399326081,1950936,0.10,-0.01,1.02,2.81,-4.52,-7.63
1777399326081,1950946,0.01,-0.00,1.00,2.75,-4.39,-5.07
1777399326081,1950956,0.02,-0.00,1.00,2.50,-4.70,-5.00
1777399326082,1950966,0.01,0.01,1.00,2.56,-4.52,-4.94
1777399326082,1950976,0.01,0.02,0.99,2.50,-4.64,-4.39
1777399326082,1950986,0.01,-0.01,1.02,2.50,-4.70,-2.14
1777399326082,1950996,0.01,-0.02,1.00,2.56,-4.64,-1.89
1777399326082,1951006,0.01,-0.00,1.01,2.56,-4.70,-3.85
1777399326082,1951016,0.01,0.00,1.00,2.38,-4.76,-5.00
1777399326082,1951026,0.01,-0.00,1.00,2.32,-4.82,-5.19
1777399326082,1951036,0.01,-0.00,0.99,2.26,-4.76,-5.37
1777399326082,1951046,0.01,0.00,1.00,2.32,-4.70,-5.25
1777399326082,1951056,0.01,0.00,1.00,2.38,-4.88,-5.13
1777399326083,1951066,0.01,-0.00,1.00,2.50,-4.70,-5.00
1777399326083,1951076,0.01,-0.00,1.01,2.50,-4.70,-4.88
1777399326083,1951086,0.01,-0.00,1.01,2.56,-4.70,-4.88
1777399326083,1951106,0.01,-0.00,1.01,2.62,-4.82,-4.82
1777399326083,1951126,0.01,-0.00,1.01,2.50,-4.76,-4.76
1777399326083,1951146,0.01,-0.00,1.01,2.50,-4.76,-4.70
1777399326083,1951166,0.01,-0.00,1.00,2.38,-4.70,-5.31
1777399326083,1951176,0.01,-0.00,1.01,2.32,-4.82,-5.31
1777399326083,1951186,0.01,-0.00,1.00,2.26,-4.76,-5.31
1777399326084,1951196,0.01,-0.00,1.00,2.32,-4.82,-5.19
1777399326084,1951206,0.01,-0.00,1.00,2.50,-4.70,-4.82
1777399326084,1951216,0.01,-0.00,1.00,2.50,-4.70,-4.70
1777399326084,1951226,0.01,-0.00,1.00,2.56,-4.76,-4.64
1777399326084,1951236,0.01,-0.00,1.00,2.62,-4.76,-4.70
1777399326084,1951246,0.01,-0.00,1.00,2.56,-4.82,-4.64
1777399326084,1951256,0.01,0.00,1.00,2.44,-4.70,-4.88
1777399326084,1951266,0.01,0.00,1.00,2.38,-4.70,-5.07
1777399326084,1951276,0.01,-0.00,1.01,2.38,-4.70,-5.19
1777399326084,1951286,0.01,-0.00,1.00,2.38,-4.70,-5.37
1777399326085,1951296,0.01,-0.00,1.00,2.38,-4.76,-5.19
1777399326085,1951306,0.01,-0.00,1.00,2.44,-4.76,-5.00
1777399326085,1951316,0.01,-0.00,1.00,2.50,-4.82,-4.94
1777399326085,1951326,0.01,-0.00,1.00,2.44,-4.82,-4.88
1777399326085,1951336,0.01,-0.00,1.00,2.50,-4.76,-4.88
1777399326085,1951346,0.01,-0.00,1.00,2.44,-4.70,-4.82
1777399326085,1951356,0.01,0.00,1.01,2.50,-4.70,-4.82
1777399326085,1951366,0.01,-0.00,1.00,2.44,-5.00,-4.88
1777399326085,1951376,0.01,-0.00,1.00,2.26,-5.25,-5.07
1777399326086,1951386,0.01,-0.00,0.99,2.32,-5.19,-5.31
1777399326086,1951396,0.01,-0.00,1.01,2.44,-4.88,-4.94
1777399326086,1951406,0.00,0.02,1.00,2.56,-4.88,-4.46
1777399326086,1951416,-0.05,0.13,1.00,2.50,-4.88,-2.44
1777399326086,1951426,-0.04,0.10,1.01,2.14,-5.00,6.71
1777399326086,1951436,-0.03,0.08,1.00,2.26,-5.00,23.86
1777399326086,1951456,-0.01,0.04,1.01,1.89,-5.37,32.35
1777399326086,1951476,0.05,-0.08,1.04,2.44,-5.13,31.92
1777399326086,1951496,0.04,-0.09,1.02,2.14,-5.07,18.13
1777399326086,1951516,0.06,-0.09,1.01,2.56,-4.70,2.38
1777399326086,1951526,0.06,-0.05,1.00,2.69,-4.76,-5.00
1777399326087,1951536,0.03,-0.01,0.99,2.62,-4.70,-6.41
1777399326087,1951546,0.01,-0.00,1.00,2.44,-4.64,-5.19
1777399326087,1951556,0.01,0.00,1.00,2.32,-4.70,-5.37
1777399326087,1951566,0.01,-0.00,0.99,2.26,-4.70,-5.37
1777399326087,1951576,0.01,-0.00,1.01,2.26,-4.82,-5.31
1777399326087,1951586,0.01,-0.00,1.00,2.44,-4.76,-4.94
1777399326087,1951596,0.01,-0.00,1.00,2.56,-4.82,-4.46
1777399326087,1951606,0.01,-0.00,1.00,2.50,-4.82,-4.52
1777399326087,1951616,0.01,-0.00,1.00,2.44,-4.76,-4.76
1777399326087,1951626,0.01,-0.00,1.01,2.44,-4.76,-4.88
1777399326088,1951636,0.01,0.00,1.00,2.44,-4.70,-5.00
1777399326088,1951646,0.01,-0.00,1.00,2.56,-4.70,-4.82
1777399326088,1951656,0.01,0.00,1.00,2.56,-4.76,-4.76
1777399326088,1951666,0.01,-0.00,1.02,2.44,-4.64,-5.00
1777399326088,1951676,0.01,-0.00,0.99,2.44,-4.88,-5.07
1777399326088,1951686,0.01,-0.00,1.01,2.44,-4.82,-4.88
1777399326088,1951696,0.01,0.00,0.99,2.50,-4.88,-4.64
1777399326088,1951706,0.01,-0.00,1.00,2.44,-4.76,-4.70
1777399326088,1951716,0.01,-0.00,1.00,2.44,-4.82,-4.94
1777399326088,1951726,0.01,-0.00,1.00,2.50,-4.76,-4.76
1777399326089,1951736,0.01,-0.00,1.01,2.62,-4.88,-4.52
1777399326089,1951746,0.01,-0.00,1.00,2.50,-4.76,-4.88
1777399326089,1951756,0.01,0.00,1.00,2.20,-4.70,-5.37
1777399326089,1951766,0.01,-0.00,1.00,2.38,-4.76,-5.07
1777399326089,1951776,0.01,-0.00,1.00,2.50,-4.76,-4.82
1777399326089,1951796,0.01,-0.00,1.00,2.38,-4.82,-5.00
1777399326089,1951816,0.01,-0.00,1.00,2.50,-4.70,-4.82
1777399326089,1951836,0.01,-0.00,1.00,2.50,-4.76,-4.82
1777399326089,1951856,0.01,-0.00,1.01,2.50,-4.76,-4.70
1777399326089,1951866,0.01,-0.00,1.00,2.50,-4.76,-4.88
1777399326089,1951876,0.01,-0.00,1.00,2.50,-4.82,-5.00
1777399326090,1951886,0.01,0.00,1.00,2.44,-4.70,-5.13
1777399326090,1951896,0.01,-0.00,1.00,2.44,-4.76,-4.94
1777399326090,1951906,0.01,-0.00,1.00,2.50,-4.70,-4.88
1777399326090,1951916,0.01,-0.00,1.00,2.56,-4.76,-4.88
1777399326090,1951926,0.01,0.00,0.99,2.50,-4.70,-4.94
1777399326090,1951936,0.01,-0.01,1.03,2.44,-4.88,-4.94
1777399326090,1951946,0.01,-0.00,0.99,2.50,-4.88,-4.94
1777399326090,1951956,0.01,0.00,1.01,2.44,-4.76,-4.94
1777399326090,1951966,0.01,-0.00,1.00,2.50,-4.82,-4.94
1777399326090,1951976,0.01,-0.00,1.00,2.38,-4.76,-5.00
1777399326091,1951986,0.01,0.00,1.01,2.32,-4.58,-5.07
1777399326091,1951996,0.01,-0.00,0.99,2.32,-4.76,-5.19
1777399326091,1952006,0.01,0.00,1.01,2.26,-4.70,-5.43
1777399326091,1952016,0.01,-0.00,1.00,2.26,-4.70,-5.37
1777399326091,1952026,0.01,-0.00,1.00,2.26,-4.76,-5.37
1777399326091,1952036,0.01,-0.00,1.00,2.26,-4.70,-5.25
1777399326091,1952046,0.01,-0.00,1.00,2.32,-4.76,-5.31
1777399326091,1952056,0.01,-0.00,1.00,2.32,-4.82,-5.07
1777399326091,1952066,0.01,0.00,1.00,2.56,-4.76,-4.52
1777399326091,1952076,-0.03,0.04,1.00,2.50,-4.94,-4.03
1777399326091,1952086,-0.02,-0.06,1.00,2.50,-4.76,-2.93
1777399326092,1952096,-0.01,-0.03,1.00,2.56,-4.58,-8.91
1777399326092,1952106,-0.01,0.01,1.00,2.50,-4.64,-13.06
1777399326092,1952116,0.02,0.00,1.00,2.56,-4.52,-12.08
1777399326092,1952126,0.03,-0.00,1.00,2.44,-4.58,-11.17
1777399326092,1952146,0.07,0.03,1.00,2.44,-4.52,-5.68
1777399326092,1952166,0.01,-0.00,1.01,2.50,-4.64,-4.94
1777399326092,1952186,0.01,-0.00,0.99,2.32,-4.88,-5.13
1777399326092,1952206,0.01,-0.00,0.99,2.56,-4.70,-4.88
1777399326092,1952216,0.01,-0.00,1.00,2.62,-4.76,-4.76
1777399326092,1952226,0.01,-0.00,1.01,2.50,-4.70,-4.88
1777399326093,1952236,0.01,0.00,0.99,2.44,-4.82,-5.19
1777399326093,1952246,0.01,-0.00,1.00,2.38,-4.64,-5.07
1777399326093,1952256,0.01,-0.00,1.04,2.38,-4.64,-4.94
1777399326093,1952266,0.01,-0.00,0.97,2.50,-4.70,-4.82
1777399326093,1952276,0.01,-0.00,1.03,2.44,-4.88,-4.70
1777399326093,1952286,0.01,0.00,0.98,2.56,-4.76,-4.82
1777399326093,1952296,0.01,0.00,1.00,2.50,-4.70,-4.88
1777399326093,1952306,0.01,-0.00,1.00,2.32,-5.00,-4.70
1777399326093,1952316,0.01,-0.00,0.99,2.50,-4.88,-4.64
1777399326093,1952326,0.01,-0.00,1.00,2.44,-4.82,-5.00
1777399326093,1952336,0.01,0.00,1.00,2.20,-4.76,-5.37
1777399326094,1952346,0.01,0.00,1.00,2.32,-4.76,-5.00
1777399326094,1952356,0.01,-0.00,1.00,2.50,-4.82,-4.39
1777399326094,1952366,0.01,-0.01,1.00,2.62,-4.76,-4.39
1777399326094,1952376,0.02,-0.00,1.00,2.56,-4.82,-4.58
1777399326094,1952386,0.01,-0.01,1.01,2.56,-4.64,-4.88
1777399326094,1952396,0.01,0.00,1.01,2.38,-4.76,-5.37
1777399326094,1952406,0.01,-0.00,0.98,2.38,-4.70,-5.13
1777399326094,1952416,0.01,-0.00,1.01,2.44,-4.58,-5.07
1777399326094,1952426,0.01,-0.00,1.00,2.38,-4.76,-5.07
1777399326094,1952436,0.01,0.00,1.00,2.26,-4.70,-5.31
1777399326095,1952446,0.01,-0.00,1.00,2.32,-4.70,-5.07
1777399326095,1952456,0.01,-0.00,1.01,2.44,-4.70,-4.70
1777399326095,1952466,0.01,-0.00,0.99,2.38,-4.70,-5.07
1777399326095,1952486,0.01,0.01,0.99,2.38,-4.70,-3.78
1777399326095,1952506,0.01,0.03,1.00,2.38,-4.64,-4.88
1777399326095,1952526,-0.01,-0.02,1.00,2.56,-4.76,-6.96
1777399326095,1952546,0.05,0.01,1.00,2.50,-4.58,-10.38
1777399326095,1952556,0.06,-0.00,1.00,2.44,-4.76,-8.06
1777399326095,1952566,0.03,0.01,1.01,2.50,-4.82,-6.29
1777399326095,1952576,0.01,-0.00,1.00,2.44,-4.94,-5.07
1777399326096,1952586,0.01,0.00,1.00,2.20,-4.88,-5.19
1777399326096,1952596,-0.00,0.00,1.00,2.26,-4.82,-4.94
1777399326096,1952606,-0.00,-0.01,1.00,2.38,-4.70,-5.43
1777399326096,1952616,0.01,-0.01,1.00,2.44,-4.52,-6.65
1777399326096,1952626,0.02,0.00,1.01,2.50,-4.52,-7.26
1777399326096,1952636,0.03,-0.00,1.00,2.50,-4.70,-6.35
1777399326096,1952646,0.03,0.00,1.01,2.62,-4.82,-5.31
1777399326096,1952656,0.01,-0.00,0.99,2.50,-4.76,-5.00
1777399326096,1952666,0.01,0.00,1.00,2.38,-4.76,-5.31
1777399326096,1952676,0.01,-0.00,1.00,2.44,-4.76,-5.00
1777399326097,1952686,0.01,-0.00,1.00,2.50,-4.76,-4.76
1777399326097,1952696,0.01,0.00,1.00,2.26,-4.88,-4.88
1777399326097,1952706,-0.07,0.17,1.00,2.20,-5.13,-3.48
1777399326097,1952716,-0.03,0.08,1.00,2.26,-5.00,8.67
1777399326097,1952726,0.01,0.00,1.01,2.32,-5.00,17.52
1777399326097,1952736,0.02,-0.03,1.00,2.20,-5.00,17.40
1777399326097,1952746,0.03,-0.06,1.00,2.32,-4.88,14.65
1777399326097,1952756,0.04,-0.05,1.00,2.26,-4.94,9.58
1777399326097,1952766,0.04,-0.05,1.00,2.44,-5.00,5.68
1777399326097,1952776,0.04,-0.04,1.00,2.44,-4.88,1.16
1777399326098,1952786,0.03,-0.03,1.00,2.32,-4.70,-2.44
1777399326098,1952796,0.01,-0.00,1.00,2.50,-4.76,-4.76
1777399326098,1952806,0.01,-0.00,1.00,2.38,-4.70,-5.07
1777399326098,1952816,0.01,-0.00,1.00,2.44,-4.76,-5.00
1777399326098,1952836,0.01,-0.00,1.00,2.38,-4.70,-5.19
1777399326098,1952856,0.01,0.00,1.00,2.32,-4.70,-5.25
1777399326098,1952876,0.01,-0.00,1.00,2.38,-4.76,-5.25
1777399326098,1952896,0.00,0.02,1.00,2.44,-4.88,-4.46
1777399326098,1952906,0.02,-0.01,1.00,2.50,-4.76,-3.60
1777399326099,1952916,0.01,-0.01,1.00,2.50,-4.64,-3.78
1777399326099,1952926,0.01,-0.00,1.00,2.44,-4.70,-5.07
1777399326099,1952936,0.01,-0.00,1.00,2.32,-4.70,-5.25
1777399326099,1952946,0.01,-0.00,1.00,2.44,-4.76,-5.00
1777399326099,1952956,0.01,-0.00,1.00,2.62,-4.82,-4.64
1777399326099,1952966,0.01,-0.00,1.00,2.38,-4.70,-5.00
1777399326099,1952976,0.01,-0.00,1.00,2.32,-4.76,-5.25
1777399326099,1952986,0.01,-0.00,1.00,2.50,-4.76,-4.94
1777399326099,1952996,0.01,-0.00,1.00,2.56,-4.70,-4.58
1777399326099,1953006,0.01,-0.00,1.00,2.50,-4.70,-4.82
1777399326100,1953016,0.01,-0.00,1.00,2.32,-4.70,-5.19
1777399326100,1953026,0.01,0.00,1.00,2.44,-4.76,-5.00
1777399326100,1953036,-0.01,0.05,1.00,2.38,-4.94,-4.46
1777399326100,1953046,0.01,0.01,1.01,2.38,-4.82,-2.32
1777399326100,1953056,0.01,0.01,1.00,2.20,-4.94,-1.04
1777399326100,1953066,0.01,-0.00,1.00,2.32,-4.88,0.00
1777399326100,1953076,0.01,-0.01,1.00,2.38,-4.88,0.18
1777399326100,1953086,0.02,-0.01,1.00,2.32,-4.94,-0.49
1777399326100,1953096,0.02,-0.01,1.00,2.26,-4.70,-1.16
1777399326100,1953106,0.02,-0.01,1.00,2.32,-4.70,-2.14
1777399326100,1953116,0.03,-0.02,1.00,2.44,-4.70,-3.05
1777399326101,1953126,0.02,-0.00,1.01,2.44,-4.70,-4.33
1777399326101,1953136,0.02,-0.00,1.00,2.50,-4.70,-4.88
1777399326101,1953146,0.01,-0.00,1.00,2.44,-4.76,-4.88
1777399326101,1953156,0.01,-0.00,1.00,2.62,-4.76,-4.70
1777399326101,1953176,0.01,-0.00,1.00,2.44,-4.70,-4.94
1777399326101,1953196,0.01,-0.00,1.00,2.44,-4.76,-5.13
1777399326101,1953216,0.01,-0.00,1.00,2.50,-4.82,-4.82
1777399326101,1953236,0.01,-0.00,1.00,2.50,-4.76,-4.82
1777399326101,1953246,0.01,-0.00,1.00,2.38,-4.64,-5.13
1777399326101,1953256,0.01,-0.00,1.00,2.44,-4.70,-5.00
1777399326101,1953266,0.01,-0.00,1.00,2.44,-4.76,-4.94
1777399326102,1953276,0.01,-0.00,1.00,2.44,-4.76,-4.82
1777399326102,1953286,0.01,-0.00,1.00,2.50,-4.82,-4.76
1777399326102,1953296,0.01,-0.00,1.00,2.38,-4.76,-5.07
1777399326102,1953306,0.01,-0.00,1.00,2.32,-4.70,-5.37
1777399326102,1953316,0.01,-0.00,1.00,2.38,-4.76,-5.00
1777399326102,1953326,0.01,-0.00,1.00,2.56,-4.70,-4.58
1777399326102,1953336,0.01,-0.00,1.00,2.44,-4.76,-4.94
1777399326102,1953346,0.01,-0.00,1.00,2.26,-4.76,-5.31
1777399326102,1953356,0.01,-0.00,1.00,2.38,-4.70,-5.07
1777399326102,1953366,0.01,-0.00,1.00,2.56,-4.70,-4.70
1777399326103,1953376,0.01,-0.00,1.00,2.56,-4.76,-4.64
1777399326103,1953386,0.01,-0.00,1.00,2.62,-4.76,-4.46
1777399326103,1953396,0.01,-0.00,1.00,2.44,-4.82,-4.94
1777399326103,1953406,0.01,-0.00,1.00,2.26,-4.70,-5.37
1777399326103,1953416,0.01,-0.00,1.00,2.44,-4.82,-5.07
1777399326103,1953426,0.01,-0.00,1.00,2.56,-4.82,-4.70
1777399326103,1953436,0.01,-0.00,1.00,2.38,-4.70,-4.94
1777399326103,1953446,0.01,-0.00,1.00,2.32,-4.70,-5.43
1777399326103,1953456,0.01,-0.00,1.00,2.32,-4.76,-5.19
1777399326103,1953466,0.01,-0.00,1.00,2.44,-4.76,-5.13
1777399326103,1953476,0.01,-0.00,1.00,2.56,-4.76,-4.82
1777399326104,1953486,0.01,-0.00,1.00,2.62,-4.82,-4.52
1777399326104,1953496,0.01,-0.00,1.00,2.56,-4.82,-4.76
1777399326104,1953506,0.01,-0.00,1.00,2.32,-4.82,-5.25
1777399326104,1953526,0.01,0.00,1.00,2.38,-4.82,-5.13
1777399326104,1953546,0.01,-0.00,1.00,2.50,-4.88,-4.94
1777399326104,1953566,0.01,-0.00,1.00,2.44,-4.76,-4.82
1777399326104,1953586,0.01,-0.00,1.00,2.50,-4.76,-4.76
1777399326104,1953596,0.01,-0.00,1.00,2.50,-4.76,-4.88
1777399326104,1953606,0.01,-0.00,1.00,2.44,-4.76,-4.82
1777399326104,1953616,0.01,-0.00,1.00,2.44,-4.76,-4.88
1777399326105,1953626,0.01,-0.00,1.00,2.50,-4.76,-4.70
1777399326105,1953636,0.01,-0.00,1.00,2.62,-4.82,-4.58
1777399326105,1953646,0.01,-0.00,1.00,2.50,-4.76,-4.76
1777399326105,1953656,0.01,-0.00,1.00,2.38,-4.82,-5.07
1777399326105,1953666,0.01,-0.00,1.00,2.38,-4.76,-5.13
1777399326105,1953676,0.01,0.00,1.00,2.32,-4.76,-5.37
1777399326105,1953686,0.01,-0.00,1.00,2.44,-4.70,-5.07
1777399326105,1953696,0.01,-0.00,1.00,2.62,-4.76,-4.64
1777399326105,1953706,0.01,-0.00,1.00,2.44,-4.76,-4.76
1777399326106,1953716,0.01,-0.00,1.00,2.50,-4.76,-5.00
1777399326106,1953726,0.01,-0.00,1.00,2.38,-4.70,-5.13
1777399326106,1953736,0.01,-0.00,1.00,2.32,-4.76,-5.19
1777399326106,1953746,0.01,-0.00,1.00,2.44,-4.76,-5.00
1777399326106,1953756,0.01,-0.00,1.00,2.50,-4.76,-5.00
1777399326106,1953766,0.01,-0.00,1.00,2.44,-4.64,-4.94
1777399326106,1953776,0.01,-0.00,1.00,2.44,-4.70,-5.00
1777399326106,1953786,0.01,-0.00,1.00,2.56,-4.82,-4.88
1777399326106,1953796,0.01,-0.00,1.00,2.44,-4.76,-4.76
1777399326107,1953806,0.01,-0.00,1.00,2.56,-4.76,-4.76
1777399326107,1953816,0.01,-0.00,1.00,2.50,-4.76,-4.70
1777399326107,1953826,0.01,-0.00,1.00,2.50,-4.82,-4.82
1777399326107,1953836,0.01,-0.00,1.00,2.56,-4.76,-4.94
1777399326107,1953846,0.01,-0.00,1.00,2.50,-4.64,-4.82
1777399326107,1953866,0.01,-0.00,1.00,2.32,-4.70,-5.19
1777399326107,1953886,0.01,-0.00,1.00,2.56,-4.76,-4.52
1777399326107,1953906,0.01,-0.00,1.00,2.56,-4.82,-4.70
1777399326107,1953926,0.01,-0.00,1.00,2.50,-4.70,-4.94
1777399326107,1953936,0.01,-0.00,1.00,2.44,-4.70,-4.94
1777399326107,1953946,0.01,0.00,1.00,2.44,-4.76,-5.07
1777399326108,1953956,0.01,-0.00,1.00,2.50,-4.82,-4.88
1777399326108,1953966,0.01,-0.00,1.00,2.50,-4.82,-4.64
1777399326108,1953976,0.01,-0.00,1.00,2.44,-4.76,-4.94
1777399326108,1953986,0.01,-0.00,1.00,2.32,-4.76,-5.31
1777399326108,1953996,0.01,-0.00,1.00,2.38,-4.70,-5.07
1777399326108,1954006,0.01,-0.00,1.00,2.56,-4.70,-4.58
1777399326108,1954016,0.01,-0.00,1.00,2.62,-4.76,-4.76
1777399326108,1954026,0.01,-0.00,1.00,2.38,-4.82,-4.94
1777399326108,1954036,0.01,-0.00,1.00,2.38,-4.76,-5.13
1777399326108,1954046,0.01,-0.00,1.00,2.32,-4.76,-5.25
1777399326108,1954056,0.01,-0.00,1.00,2.44,-4.76,-5.00
1777399326109,1954066,0.01,-0.00,1.00,2.56,-4.70,-4.76
1777399326109,1954076,0.01,-0.00,1.00,2.50,-4.70,-4.82
1777399326109,1954086,0.01,-0.00,1.00,2.50,-4.70,-4.82
1777399326109,1954096,0.01,-0.00,1.00,2.50,-4.70,-4.88
1777399326109,1954106,0.01,-0.00,1.00,2.44,-4.82,-5.00
1777399326109,1954116,0.01,-0.00,1.00,2.38,-4.82,-5.19
1777399326109,1954126,0.01,-0.00,1.00,2.38,-4.70,-5.37
1777399326109,1954136,0.01,-0.00,1.00,2.38,-4.70,-5.25
1777399326109,1954146,0.01,-0.00,1.00,2.50,-4.76,-4.88
1777399326109,1954156,0.01,-0.00,1.00,2.38,-4.76,-5.00
1777399326109,1954166,0.01,-0.00,1.00,2.38,-4.76,-5.19
1777399326110,1954176,0.01,-0.00,1.00,2.38,-4.76,-5.19
1777399326110,1954186,0.01,-0.00,1.00,2.44,-4.82,-4.94
1777399326110,1954196,0.01,-0.00,1.00,2.50,-4.70,-4.64
1777399326110,1954216,0.01,-0.00,1.00,2.38,-4.76,-5.19
1777399326110,1954236,0.01,-0.00,1.00,2.62,-4.76,-4.52
1777399326110,1954256,0.01,-0.00,1.00,2.56,-4.76,-4.58
1777399326110,1954276,0.01,-0.00,1.00,2.56,-4.82,-4.70
1777399326110,1954286,0.01,-0.00,1.00,2.56,-4.70,-4.70
1777399326110,1954296,0.01,-0.00,1.00,2.56,-4.82,-4.64
1777399326110,1954306,0.01,-0.00,1.00,2.38,-4.76,-5.00
1777399326110,1954316,0.01,-0.00,1.00,2.32,-4.70,-5.43
1777399326111,1954326,0.01,-0.00,1.00,2.32,-4.76,-5.31
1777399326111,1954336,0.01,-0.00,1.00,2.44,-4.76,-5.13
1777399326111,1954346,0.01,-0.00,1.00,2.38,-4.76,-5.13
1777399326111,1954356,0.01,-0.00,1.00,2.38,-4.82,-5.13
1777399326111,1954366,0.01,-0.00,1.00,2.56,-4.76,-4.88
1777399326111,1954376,0.01,-0.00,1.00,2.62,-4.76,-4.58
1777399326111,1954386,0.01,-0.00,1.00,2.50,-4.76,-4.88
1777399326111,1954396,0.01,-0.00,1.00,2.32,-4.70,-5.25
1777399326111,1954406,0.01,-0.00,1.00,2.38,-4.76,-5.07
1777399326111,1954416,0.01,-0.00,1.00,2.44,-4.76,-5.00
1777399326111,1954426,0.01,0.00,1.00,2.50,-4.70,-4.88
1777399326112,1954436,0.01,-0.00,1.00,2.62,-4.70,-4.58
1777399326112,1954446,0.01,-0.00,1.00,2.62,-4.70,-4.58
1777399326112,1954456,0.01,-0.00,1.00,2.62,-4.64,-4.46
1777399326112,1954466,0.01,-0.00,1.00,2.56,-4.64,-4.76
1777399326112,1954476,0.01,-0.00,1.01,2.44,-4.70,-5.00
1777399326112,1954486,-0.01,0.07,0.98,2.32,-5.00,-4.76
1777399326112,1954496,0.00,0.01,1.01,2.38,-4.64,-1.46
1777399326112,1954506,0.03,-0.04,1.00,2.44,-4.88,0.55
1777399326112,1954516,0.03,-0.03,1.00,2.32,-4.76,-1.95
1777399326112,1954526,0.01,-0.00,1.00,2.38,-4.64,-4.88
1777399326113,1954536,0.01,-0.00,1.00,2.38,-4.64,-5.00
1777399326113,1954546,0.01,-0.00,1.00,2.44,-4.76,-4.52
1777399326113,1954566,0.01,-0.00,1.00,2.38,-4.82,-5.13
1777399326113,1954586,0.01,-0.00,1.00,2.38,-4.82,-5.00
1777399326113,1954606,0.01,-0.00,1.00,2.38,-4.70,-5.13
1777399326113,1954616,0.01,-0.00,1.00,2.32,-4.70,-5.25
1777399326113,1954626,0.01,-0.00,1.00,2.38,-4.70,-5.37
1777399326113,1954636,0.01,-0.00,1.00,2.44,-4.70,-5.19
1777399326113,1954646,0.01,-0.00,1.00,2.50,-4.76,-4.82
1777399326113,1954656,0.01,-0.00,1.00,2.38,-4.82,-5.00
1777399326113,1954666,0.01,-0.00,1.00,2.38,-4.70,-5.07
1777399326114,1954676,0.01,0.00,0.99,2.38,-4.76,-5.00
1777399326114,1954686,0.02,-0.01,1.00,2.44,-4.70,-5.07
1777399326114,1954696,0.01,-0.00,1.01,2.56,-4.76,-4.88
1777399326114,1954706,0.01,-0.00,0.98,2.69,-4.76,-4.64
1777399326114,1954716,0.01,-0.00,1.01,2.62,-4.64,-4.64
1777399326114,1954726,0.01,-0.00,1.00,2.62,-4.76,-4.76
1777399326114,1954736,0.01,-0.00,1.00,2.50,-4.76,-4.70
1777399326114,1954746,0.01,-0.00,1.01,2.56,-4.82,-4.64
1777399326114,1954756,0.01,-0.00,1.00,2.50,-4.82,-4.70
1777399326114,1954766,0.01,-0.00,1.00,2.50,-4.76,-4.88
1777399326114,1954776,0.01,0.00,1.00,2.56,-4.82,-4.76
1777399326115,1954786,0.01,-0.00,1.00,2.56,-4.82,-4.58
1777399326115,1954796,0.01,-0.00,1.00,2.50,-4.88,-4.70
1777399326115,1954806,0.01,-0.00,1.01,2.38,-4.88,-4.76
1777399326115,1954816,-0.02,0.02,1.00,2.38,-4.82,-4.70
1777399326115,1954826,-0.01,-0.02,1.00,2.38,-4.70,-4.46
1777399326115,1954836,0.00,0.08,1.00,2.38,-4.58,-5.31
1777399326115,1954846,0.01,0.03,1.01,2.38,-4.64,0.98
1777399326115,1954856,0.02,-0.01,1.00,2.38,-4.82,4.94
1777399326115,1954866,0.02,-0.03,1.00,2.32,-4.88,3.85
1777399326116,1954876,0.03,-0.05,1.00,2.50,-4.88,1.89
1777399326116,1954886,0.03,-0.04,1.00,2.56,-4.88,-1.59
1777399326116,1954906,0.01,-0.00,1.00,2.38,-4.76,-5.25
1777399326116,1954926,0.01,-0.00,1.00,2.38,-4.70,-5.31
1777399326116,1954946,0.01,-0.00,1.00,2.50,-4.70,-5.07
1777399326116,1954966,0.01,-0.00,1.00,2.56,-4.76,-4.76
1777399326116,1954976,0.01,-0.00,1.00,2.44,-4.64,-4.94
1777399326116,1954986,0.01,-0.00,1.00,2.44,-4.76,-5.07
1777399326116,1954996,0.01,-0.00,1.00,2.32,-4.76,-5.31
1777399326116,1955006,0.01,-0.00,1.00,2.38,-4.70,-4.94
1777399326116,1955016,0.01,-0.00,1.00,2.62,-4.76,-4.58
1777399326117,1955026,0.01,-0.00,1.00,2.56,-4.76,-4.70
1777399326117,1955036,0.01,-0.00,1.00,2.50,-4.70,-4.88
1777399326117,1955046,0.01,-0.00,1.00,2.38,-4.76,-5.07
1777399326117,1955056,0.01,-0.00,1.00,2.38,-4.76,-5.31
1777399326117,1955066,0.01,-0.00,1.00,2.50,-4.70,-4.94
1777399326117,1955076,0.01,-0.00,1.00,2.62,-4.82,-4.46
1777399326117,1955086,0.01,-0.00,1.00,2.69,-4.76,-4.52
1777399326117,1955096,0.01,-0.00,1.00,2.62,-4.88,-4.52
1777399326117,1955106,0.01,-0.00,1.00,2.56,-4.76,-4.76
1777399326117,1955116,0.01,-0.00,1.00,2.50,-4.76,-5.07
1777399326117,1955126,0.01,-0.00,1.00,2.50,-4.64,-4.76
1777399326118,1955136,0.01,-0.00,1.00,2.50,-4.82,-4.58
1777399326118,1955146,0.01,-0.00,1.00,2.50,-4.76,-4.88
1777399326118,1955156,0.01,-0.00,1.00,2.38,-4.82,-5.25
1777399326118,1955166,0.01,-0.00,1.00,2.38,-4.70,-5.19
1777399326118,1955176,0.01,-0.00,1.00,2.38,-4.76,-5.19
1777399326118,1955186,0.01,-0.00,1.00,2.44,-4.82,-4.94
1777399326118,1955196,0.01,0.00,1.00,2.56,-4.76,-4.52
1777399326118,1955206,0.01,-0.00,1.00,2.44,-4.76,-5.00
1777399326118,1955216,0.01,-0.00,1.00,2.38,-4.76,-5.37
1777399326118,1955226,0.01,-0.00,1.00,2.38,-4.82,-5.13
1777399326118,1955236,0.01,-0.00,1.00,2.50,-4.76,-5.00
1777399326119,1955256,0.01,-0.00,1.00,2.32,-4.70,-5.19
1777399326119,1955276,0.01,-0.00,1.00,2.38,-4.76,-5.25
1777399326119,1955296,0.01,-0.00,1.00,2.38,-4.76,-5.31
1777399326119,1955316,0.01,-0.00,1.00,2.38,-4.76,-5.13
1777399326119,1955326,0.01,-0.00,1.00,2.44,-4.76,-4.88
1777399326119,1955336,0.01,-0.00,1.00,2.32,-4.76,-5.13
1777399326119,1955346,0.01,0.00,1.00,2.38,-4.76,-5.31
1777399326119,1955356,0.01,-0.00,1.00,2.50,-4.70,-5.00
1777399326119,1955366,0.01,-0.00,1.00,2.62,-4.76,-4.58
1777399326119,1955376,0.01,-0.00,1.00,2.50,-4.76,-4.52
1777399326119,1955386,0.01,-0.00,1.00,2.56,-4.76,-4.52
1777399326120,1955396,0.01,-0.00,1.00,2.44,-4.70,-4.76
1777399326120,1955406,0.01,-0.00,1.00,2.44,-4.76,-5.00
1777399326120,1955416,0.01,-0.00,1.00,2.44,-4.82,-5.19
1777399326120,1955426,0.01,-0.00,1.00,2.32,-4.88,-5.31
1777399326120,1955436,0.01,-0.00,1.00,2.32,-4.82,-5.19
1777399326120,1955446,0.01,-0.00,1.00,2.44,-4.70,-5.19
1777399326120,1955456,0.01,-0.00,1.00,2.44,-4.70,-4.94
1777399326120,1955466,0.01,-0.00,1.00,2.62,-4.76,-4.58
1777399326120,1955476,0.01,-0.00,1.00,2.50,-4.76,-4.82
1777399326120,1955486,0.01,-0.00,1.00,2.32,-4.70,-5.25
1777399326120,1955496,0.01,-0.00,1.00,2.32,-4.70,-5.25
1777399326121,1955506,0.01,-0.00,1.00,2.20,-4.70,-5.37
1777399326121,1955516,0.01,-0.00,1.00,2.26,-4.76,-5.37
1777399326121,1955526,0.01,-0.00,1.00,2.32,-4.70,-5.37
1777399326121,1955536,0.01,-0.00,1.00,2.44,-4.70,-5.31
1777399326121,1955546,0.01,-0.00,1.00,2.44,-4.70,-5.19
1777399326121,1955556,0.01,-0.00,1.00,2.38,-4.76,-5.13
1777399326121,1955566,0.01,-0.00,1.00,2.44,-4.70,-5.00
1777399326121,1955576,0.01,-0.00,1.00,2.50,-4.76,-4.88
1777399326121,1955596,0.02,-0.00,1.00,2.32,-4.76,-5.43
1777399326121,1955616,0.01,-0.00,1.00,2.50,-4.76,-4.94
1777399326121,1955636,0.01,-0.00,1.00,2.50,-4.70,-4.88
1777399326122,1955656,0.01,-0.00,1.00,2.56,-4.76,-4.64
1777399326122,1955666,0.01,-0.00,1.00,2.50,-4.76,-4.76
1777399326122,1955676,0.01,-0.00,1.00,2.50,-4.70,-4.94
1777399326122,1955686,0.01,-0.00,1.00,2.44,-4.76,-5.13
1777399326122,1955696,0.01,-0.00,1.00,2.20,-4.64,-5.37
1777399326122,1955706,0.01,-0.00,1.00,2.38,-4.76,-5.00
1777399326122,1955716,0.01,-0.00,1.00,2.62,-4.82,-4.52
1777399326122,1955726,0.01,-0.00,1.00,2.62,-4.88,-4.64
1777399326122,1955736,0.01,-0.00,1.00,2.44,-4.76,-4.88
1777399326122,1955746,0.01,-0.00,1.00,2.44,-4.82,-5.07
1777399326123,1955756,0.01,-0.00,1.00,2.38,-4.70,-5.31
1777399326123,1955766,0.01,-0.00,1.00,2.44,-4.64,-5.07
1777399326123,1955776,0.01,-0.00,1.00,2.62,-4.76,-4.70
1777399326123,1955786,0.01,-0.00,1.00,2.62,-4.76,-4.70
1777399326123,1955796,0.01,-0.00,1.00,2.56,-4.76,-4.82
1777399326123,1955806,0.01,-0.00,1.00,2.44,-4.82,-5.07
1777399326123,1955816,0.02,-0.00,1.00,2.26,-4.76,-5.37
1777399326123,1955826,0.01,-0.00,1.00,2.38,-4.76,-5.25
1777399326123,1955836,0.01,-0.00,1.00,2.44,-4.76,-5.07
1777399326123,1955846,0.01,-0.00,1.00,2.56,-4.82,-4.82
1777399326123,1955856,0.01,-0.00,1.00,2.56,-4.70,-4.64
1777399326124,1955866,0.01,-0.00,1.00,2.44,-4.64,-4.94
1777399326124,1955876,0.01,-0.00,1.00,2.26,-4.70,-5.37
1777399326124,1955886,0.01,-0.00,1.00,2.44,-4.82,-5.19
1777399326124,1955896,0.01,-0.00,1.00,2.50,-4.82,-4.82
1777399326124,1955906,0.01,-0.00,1.00,2.62,-4.70,-4.76
1777399326124,1955916,0.01,-0.00,1.00,2.69,-4.76,-4.64
1777399326124,1955926,0.01,-0.00,1.00,2.44,-4.70,-5.43
1777399326124,1955946,0.01,-0.00,1.00,2.50,-4.76,-5.00
1777399326124,1955966,0.01,-0.00,1.00,2.62,-4.82,-4.64
1777399326124,1955986,0.01,-0.00,1.00,2.38,-4.76,-5.19
1777399326124,1956006,0.01,-0.00,1.00,2.38,-4.76,-5.07
1777399326125,1956016,0.01,-0.00,1.00,2.44,-4.76,-5.07
1777399326125,1956026,0.01,-0.00,1.00,2.44,-4.70,-5.00
1777399326125,1956036,0.01,-0.00,1.00,2.38,-4.76,-5.07
1777399326125,1956046,0.01,-0.00,1.00,2.32,-4.76,-5.19
1777399326125,1956056,0.01,-0.00,1.00,2.32,-4.76,-5.31
1777399326125,1956066,0.01,-0.00,1.00,2.32,-4.70,-5.25
1777399326125,1956076,0.01,-0.00,1.00,2.44,-4.76,-4.94
1777399326125,1956086,0.01,-0.00,1.00,2.50,-4.76,-4.58
1777399326125,1956096,0.01,-0.00,1.00,2.50,-4.70,-4.64
1777399326125,1956106,0.01,-0.00,1.00,2.50,-4.70,-4.88
1777399326125,1956116,0.01,-0.00,1.00,2.56,-4.82,-4.70
1777399326126,1956126,0.01,-0.00,1.00,2.56,-4.82,-4.58
1777399326126,1956136,0.01,-0.00,1.00,2.62,-4.76,-4.58
1777399326126,1956146,0.01,-0.00,1.00,2.62,-4.70,-4.58
1777399326126,1956156,0.01,-0.00,1.00,2.69,-4.70,-4.64
1777399326126,1956166,0.01,-0.00,1.00,2.62,-4.76,-4.70
1777399326126,1956176,0.01,-0.00,1.00,2.38,-4.70,-4.94
1777399326126,1956186,0.01,-0.00,1.00,2.38,-4.76,-5.13
1777399326126,1956196,0.01,-0.00,1.00,2.38,-4.64,-5.00
1777399326126,1956206,0.01,-0.00,1.00,2.50,-4.82,-4.82
1777399326127,1956216,0.01,-0.00,1.00,2.56,-4.76,-4.88
1777399326127,1956226,0.01,-0.00,1.00,2.44,-4.70,-5.13
1777399326127,1956236,0.01,-0.00,1.00,2.62,-4.64,-4.82
1777399326127,1956246,0.01,-0.00,1.00,2.69,-4.76,-4.64
1777399326127,1956256,0.01,-0.00,1.00,2.62,-4.76,-4.76
1777399326127,1956266,0.01,-0.00,1.00,2.56,-4.76,-5.00
1777399326127,1956286,0.01,-0.00,1.00,2.50,-4.76,-5.13
1777399326127,1956306,0.01,-0.00,1.00,2.38,-4.70,-5.37
1777399326127,1956326,0.01,0.00,1.01,2.38,-4.64,-5.31
1777399326127,1956346,0.01,-0.00,1.00,2.44,-4.64,-5.25
1777399326127,1956356,0.01,-0.00,1.00,2.32,-4.70,-5.43
1777399326128,1956366,0.01,-0.00,1.00,2.44,-4.64,-5.37
1777399326128,1956376,0.02,0.00,1.00,2.44,-4.58,-5.25
1777399326128,1956386,0.01,-0.00,1.00,2.56,-4.70,-5.07
1777399326128,1956396,0.01,-0.00,1.00,2.56,-4.64,-4.82
1777399326128,1956406,0.01,-0.00,1.01,2.56,-4.64,-5.07
1777399326128,1956416,0.02,-0.00,1.00,2.50,-4.64,-5.37
1777399326128,1956426,0.01,0.00,1.00,2.38,-4.70,-5.37
1777399326128,1956436,0.01,-0.00,1.00,2.32,-4.64,-5.49
1777399326128,1956446,0.01,-0.00,1.00,2.32,-4.70,-5.49
1777399326128,1956456,0.01,0.00,1.00,2.38,-4.70,-5.49
1777399326128,1956466,0.01,-0.00,0.99,2.32,-4.88,-5.31
1777399326129,1956476,0.01,-0.00,1.00,2.44,-4.64,-5.19
1777399326129,1956486,0.01,-0.00,1.00,2.44,-4.64,-5.25
1777399326129,1956496,0.01,-0.00,1.00,2.38,-4.64,-5.49
1777399326129,1956506,0.01,-0.00,1.00,2.38,-4.70,-5.19
1777399326129,1956516,0.01,0.00,1.00,2.44,-4.70,-4.94
1777399326129,1956526,-0.01,0.04,1.00,2.38,-4.58,-4.88
1777399326129,1956536,0.02,-0.01,1.02,2.50,-4.46,-2.32
1777399326129,1956546,0.03,-0.03,1.00,2.44,-4.82,-2.14
1777399326129,1956556,0.01,-0.00,1.00,2.44,-4.94,-4.82
1777399326129,1956566,0.01,-0.00,1.00,2.26,-4.94,-5.25
1777399326130,1956576,0.01,-0.00,1.00,2.26,-4.88,-5.43
1777399326130,1956586,0.01,-0.00,1.00,2.50,-4.70,-5.13
1777399326130,1956596,0.00,-0.01,1.00,2.56,-4.64,-4.88
1777399326130,1956606,0.02,0.00,1.00,2.50,-4.70,-5.92
1777399326130,1956616,0.01,0.00,1.00,2.44,-4.76,-5.25
1777399326130,1956636,0.01,0.00,1.00,2.50,-4.82,-5.19
1777399326130,1956656,0.01,-0.00,1.00,2.50,-4.88,-5.00
1777399326130,1956676,0.01,-0.00,1.00,2.38,-4.70,-4.88
1777399326130,1956696,0.01,-0.00,1.00,2.38,-4.70,-5.31
1777399326130,1956706,0.01,-0.00,1.00,2.32,-4.76,-5.43
1777399326131,1956716,0.01,0.00,1.00,2.44,-4.76,-5.19
1777399326131,1956726,0.01,0.00,1.00,2.62,-4.88,-4.82
1777399326131,1956736,0.01,-0.00,1.00,2.56,-4.88,-4.76
1777399326131,1956746,0.01,-0.00,1.00,2.50,-4.88,-4.58
1777399326131,1956756,0.01,-0.00,1.01,2.50,-4.76,-4.70
1777399326131,1956766,0.01,-0.00,1.00,2.69,-4.70,-4.58
1777399326131,1956776,0.01,-0.00,1.00,2.56,-4.76,-4.88
1777399326131,1956786,0.01,0.00,1.00,2.38,-4.76,-5.25
1777399326131,1956796,0.01,-0.00,1.00,2.32,-4.76,-5.37
1777399326131,1956806,0.01,-0.00,1.01,2.32,-4.82,-5.49
1777399326131,1956816,0.01,-0.00,1.00,2.32,-4.76,-5.49
1777399326132,1956826,0.01,-0.00,1.00,2.26,-4.70,-5.49
1777399326132,1956836,0.01,0.00,1.00,2.26,-4.82,-5.49
1777399326132,1956846,0.11,0.17,1.01,2.08,-4.70,-10.31
1777399326132,1956856,0.17,0.29,1.00,2.32,-4.64,-36.01
1777399326132,1956866,0.16,0.11,1.01,3.17,-4.15,-52.73
1777399326132,1956876,0.04,0.13,0.99,3.42,-3.97,-67.20
1777399326132,1956886,-0.03,-0.30,1.00,3.60,-3.72,-55.05
1777399326132,1956896,-0.20,-0.39,1.02,1.59,-3.85,-15.38
1777399326132,1956906,-0.14,-0.04,1.02,-1.83,-2.50,-10.07
1777399326132,1956916,0.01,0.07,1.03,-4.52,3.66,-28.75
1777399326133,1956926,-0.02,0.03,1.06,-3.11,21.30,-57.07
1777399326133,1956936,0.03,-0.12,0.99,-5.49,36.44,-83.86
1777399326133,1956946,0.21,0.01,1.08,-3.30,45.47,-115.72
1777399326133,1956956,0.10,0.17,1.02,-9.70,47.97,-133.73
1777399326133,1956976,-0.12,0.08,1.64,5.74,80.44,-56.09
1777399326133,1956996,0.04,0.03,1.15,-30.27,48.03,-21.73
1777399326133,1957016,-0.48,-0.17,0.80,-36.99,112.43,-54.93
1777399326133,1957036,-0.12,0.06,1.02,-71.53,136.17,-39.12
1777399326133,1957046,-0.35,0.08,1.28,-31.25,159.00,-33.08
1777399326133,1957056,-0.43,-0.09,1.01,-47.06,148.25,-34.48
1777399326134,1957066,-0.43,-0.22,0.99,-35.03,149.72,-28.02
1777399326134,1957076,-0.41,-0.23,0.94,-16.05,149.17,-27.40
1777399326134,1957086,-0.37,-0.18,0.94,-14.77,140.87,-28.38
1777399326134,1957096,-0.45,-0.11,0.94,-15.99,130.86,-28.02
1777399326134,1957106,-0.49,-0.11,0.93,-10.74,123.17,-21.73
1777399326134,1957116,-0.49,-0.09,0.90,5.37,122.07,-13.24
1777399326134,1957126,-0.53,-0.07,0.93,18.07,123.05,-2.50
1777399326134,1957136,-0.52,-0.12,0.96,14.65,116.58,13.18
1777399326134,1957146,-0.44,-0.19,0.83,2.69,104.92,33.51
1777399326134,1957156,-0.40,-0.22,0.76,-19.10,98.57,49.68
1777399326135,1957166,-0.38,-0.15,0.71,-42.54,93.75,52.37
1777399326135,1957176,-0.45,-0.22,0.65,-68.79,83.31,41.93
1777399326135,1957186,-0.45,-0.22,0.63,-101.01,60.79,9.52
1777399326135,1957196,-0.52,-0.23,0.63,-126.28,36.56,-30.70
1777399326135,1957206,-0.58,-0.17,0.59,-124.57,26.73,-53.34
1777399326135,1957216,-0.58,-0.02,0.54,-102.91,23.68,-54.87
1777399326135,1957226,-0.58,0.05,0.61,-95.28,20.02,-50.96
1777399326135,1957236,-0.63,0.00,0.70,-100.22,12.15,-45.90
1777399326135,1957246,-0.72,-0.13,0.76,-103.52,-0.37,-36.32
1777399326135,1957256,-0.74,-0.28,0.83,-93.69,-15.26,-18.98
1777399326136,1957266,-0.66,-0.34,0.81,-67.87,-30.46,4.94
1777399326136,1957276,-0.63,-0.20,0.76,-28.14,-38.70,32.10
1777399326136,1957286,-0.61,-0.05,0.67,8.97,-38.64,62.81
1777399326136,1957296,-0.54,0.02,0.57,31.31,-31.68,82.40
1777399326136,1957306,-0.45,0.04,0.50,38.45,-19.90,65.55
1777399326136,1957326,-0.38,-0.07,0.54,-31.86,72.57,-1.59
1777399326136,1957346,-0.56,-0.42,0.74,-51.57,57.25,-13.00
1777399326136,1957366,-0.54,-0.19,0.80,-18.92,17.70,0.18
1777399326137,1957386,-0.51,-0.48,0.79,-26.06,8.91,4.94
1777399326137,1957396,-0.51,-0.44,0.80,-20.02,6.59,-5.98
1777399326137,1957406,-0.48,-0.36,0.81,-15.44,7.45,-11.47
1777399326137,1957416,-0.51,-0.29,0.85,-25.82,2.75,-22.09
1777399326137,1957426,-0.61,-0.28,0.86,-39.25,-2.99,-23.99
1777399326137,1957436,-0.54,-0.18,0.35,-44.62,-4.46,-8.12
1777399326137,1957446,-0.39,0.11,0.22,-82.21,15.87,-4.46
1777399326137,1957456,-0.30,0.13,0.01,-126.16,49.56,17.94
1777399326137,1957466,-0.52,-0.21,0.29,-152.71,97.53,53.96
1777399326138,1957476,-0.83,-0.46,0.62,-152.95,139.22,78.74
1777399326138,1957486,-0.98,-0.61,0.90,-147.89,147.89,80.57
1777399326138,1957496,-0.98,-0.86,1.19,-136.78,116.33,66.96
1777399326138,1957506,-1.05,-0.96,1.05,-103.15,50.17,39.67
1777399326138,1957516,-0.96,-0.68,0.76,-64.94,-19.71,3.72
1777399326138,1957526,-0.90,-0.33,0.51,-25.02,-66.71,-18.37
1777399326138,1957536,-0.86,-0.53,0.46,-5.25,-87.04,-17.82
1777399326138,1957546,-0.75,-0.36,0.82,-13.06,-83.92,-19.53
1777399326138,1957556,-0.66,-0.32,0.63,-31.68,-86.73,-14.40
1777399326139,1957566,-0.76,-0.51,0.59,-39.79,-83.74,-2.87
1777399326139,1957576,-0.74,-0.41,0.62,-34.61,-74.83,0.12
1777399326139,1957586,-0.74,-0.38,0.64,-32.04,-68.42,1.28
1777399326139,1957596,-0.81,-0.43,0.71,-37.05,-61.46,1.89
1777399326139,1957606,-0.86,-0.37,0.74,-46.02,-61.40,-8.00
1777399326139,1957616,-0.90,-0.20,1.01,-56.46,-68.97,-17.82
1777399326139,1957626,-0.76,-0.30,0.44,-72.75,-85.69,-20.02
1777399326139,1957636,-0.71,-0.31,0.60,-82.03,-71.41,-19.59
1777399326139,1957646,-0.14,-0.23,0.56,-82.34,-51.76,22.71
1777399326140,1957666,-0.58,-0.68,0.59,-50.54,-6.96,3.48
1777399326140,1957686,-0.62,-0.35,0.67,-46.39,8.61,7.93
1777399326140,1957706,-0.76,-0.46,0.52,-48.28,6.77,1.89
1777399326140,1957726,-0.51,-0.46,0.55,-61.95,15.01,-20.87
1777399326140,1957736,-0.55,-0.49,0.56,-64.21,17.52,-20.69
1777399326140,1957746,-0.54,-0.47,0.56,-62.74,18.49,-17.52
1777399326140,1957756,-0.59,-0.47,0.61,-59.94,19.29,-11.23
1777399326140,1957766,-0.64,-0.48,0.67,-60.85,15.32,-5.43
1777399326140,1957776,-0.64,-0.48,0.67,-64.94,2.99,-5.13
1777399326141,1957786,-0.62,-0.51,0.62,-67.20,-9.22,-7.57
1777399326141,1957796,-0.57,-0.58,0.55,-64.03,-16.54,-10.31
1777399326141,1957806,-0.52,-0.62,0.49,-55.18,-16.78,-14.10
1777399326141,1957816,-0.40,-0.52,0.32,-42.42,-11.72,-16.66
1777399326141,1957826,-0.39,-0.55,0.46,-28.02,-0.18,-12.27
1777399326141,1957836,-0.36,-0.61,0.37,-9.34,5.55,-6.71
1777399326141,1957846,-0.34,-0.62,0.37,-0.49,18.55,-4.03
1777399326141,1957856,-0.36,-0.57,0.45,0.92,33.39,-3.23
1777399326141,1957866,-0.42,-0.54,0.51,0.49,43.15,-1.65
1777399326141,1957876,-0.46,-0.55,0.54,-3.23,46.94,2.08
1777399326142,1957886,-0.50,-0.60,0.57,-8.00,46.51,3.60
1777399326142,1957896,-0.56,-0.63,0.64,-11.41,41.02,0.92
1777399326142,1957906,-0.54,-0.64,0.60,-14.40,28.44,-3.66
1777399326142,1957916,-0.45,-0.67,0.57,-18.86,16.42,-8.73
1777399326142,1957926,-0.52,-0.65,0.52,-24.66,4.82,-18.01
1777399326142,1957936,-0.46,-0.69,0.42,-20.69,2.50,-18.80
1777399326142,1957946,-0.52,-0.65,0.48,-13.06,6.59,-18.62
1777399326142,1957956,-0.53,-0.67,0.45,-1.89,9.64,-14.40
1777399326142,1957966,-0.59,-0.67,0.50,6.29,12.21,-12.15
1777399326142,1957976,-0.61,-0.69,0.51,12.45,13.55,-11.47
1777399326142,1957986,-0.64,-0.64,0.56,15.75,12.39,-9.83
1777399326143,1957996,-0.64,-0.64,0.56,14.10,5.13,-9.89
1777399326143,1958016,-0.61,-0.64,0.52,10.19,-1.40,-8.36
1777399326143,1958036,-0.61,-0.64,0.50,10.19,6.71,-5.74
1777399326143,1958056,-0.62,-0.61,0.48,11.41,15.81,-3.17
1777399326143,1958076,-0.67,-0.61,0.49,8.48,21.85,-1.34
1777399326143,1958086,-0.68,-0.61,0.49,6.59,22.34,-1.28
1777399326143,1958096,-0.69,-0.60,0.48,4.76,21.91,-1.65
1777399326143,1958106,-0.68,-0.60,0.47,2.75,20.63,-2.20
1777399326143,1958116,-0.66,-0.61,0.44,0.67,18.74,-2.38
1777399326143,1958126,-0.66,-0.61,0.43,0.00,17.64,-1.89
1777399326144,1958136,-0.66,-0.60,0.42,1.28,16.78,-1.40
1777399326144,1958146,-0.65,-0.59,0.41,3.48,15.44,-1.28
1777399326144,1958156,-0.65,-0.57,0.40,5.13,14.22,-0.79
1777399326144,1958166,-0.64,-0.57,0.40,6.16,12.88,0.61
1777399326144,1958176,-0.64,-0.57,0.39,8.00,12.21,2.69
1777399326144,1958186,-0.65,-0.58,0.39,10.68,13.43,3.60
1777399326144,1958196,-0.66,-0.55,0.42,12.70,16.36,1.59
1777399326144,1958206,-0.67,-0.54,0.43,10.80,18.13,-1.34
1777399326144,1958216,-0.67,-0.55,0.43,6.96,17.76,-1.83
1777399326144,1958226,-0.68,-0.57,0.43,5.43,16.91,-0.37
1777399326144,1958236,-0.69,-0.58,0.44,5.74,15.56,0.37
1777399326145,1958246,-0.69,-0.56,0.42,5.19,13.18,-0.37
1777399326145,1958256,-0.68,-0.56,0.42,3.78,11.05,-0.73
1777399326145,1958266,-0.68,-0.58,0.42,2.62,8.67,-0.73
1777399326145,1958276,-0.67,-0.59,0.39,2.87,5.19,-0.61
1777399326145,1958286,-0.66,-0.58,0.38,3.42,3.54,-1.16
1777399326145,1958296,-0.65,-0.58,0.37,5.13,3.23,-1.22
1777399326145,1958306,-0.65,-0.58,0.37,8.00,3.54,-0.37
1777399326145,1958316,-0.66,-0.58,0.37,11.35,4.76,0.67
1777399326145,1958326,-0.67,-0.57,0.39,14.65,6.16,1.04
1777399326145,1958336,-0.68,-0.57,0.41,17.03,6.53,-15.08
1777399326146,1958356,-0.69,-0.56,0.42,15.01,4.03,-4.70
1777399326146,1958376,-0.69,-0.58,0.42,14.47,3.48,-7.51
1777399326146,1958396,-0.69,-0.57,0.42,14.53,1.65,-7.20
1777399326146,1958416,-0.69,-0.56,0.43,13.55,1.16,-6.77
1777399326146,1958426,-0.69,-0.56,0.43,13.06,1.77,-6.47
1777399326146,1958436,-0.69,-0.57,0.42,11.78,2.20,-6.84
1777399326146,1958446,-0.70,-0.56,0.41,10.44,2.69,-8.61
1777399326146,1958456,-0.69,-0.55,0.40,10.01,3.11,-9.09
1777399326146,1958466,-0.70,-0.54,0.41,10.93,3.05,-7.26
1777399326146,1958476,-0.72,-0.55,0.42,10.93,1.77,-4.70
1777399326147,1958486,-0.74,-0.56,0.43,9.83,0.18,-4.33
1777399326147,1958496,-0.74,-0.56,0.43,8.73,-1.34,-5.49
1777399326147,1958506,-0.75,-0.55,0.42,6.71,-2.99,-6.53
1777399326147,1958516,-0.75,-0.54,0.41,4.33,-3.54,-6.96
1777399326147,1958526,-0.74,-0.55,0.41,2.01,-3.11,-6.59
1777399326147,1958536,-0.74,-0.56,0.40,0.31,-2.81,-6.04
1777399326147,1958546,-0.75,-0.56,0.41,-0.55,-2.44,-5.43
1777399326147,1958556,-0.75,-0.56,0.41,-0.79,-2.44,-5.07
1777399326147,1958566,-0.76,-0.54,0.40,-1.22,-2.69,-4.15
1777399326147,1958576,-0.77,-0.54,0.40,-1.95,-2.50,-2.81
1777399326148,1958586,-0.78,-0.53,0.39,-2.50,-1.59,-2.62
1777399326148,1958596,-0.78,-0.53,0.38,-3.42,-0.37,-3.54
1777399326148,1958606,-0.79,-0.52,0.38,-4.21,0.85,-4.70
1777399326148,1958616,-0.79,-0.52,0.37,-4.09,1.59,-5.55
1777399326148,1958626,-0.80,-0.52,0.38,-3.05,1.89,-6.23
1777399326148,1958636,-0.79,-0.50,0.36,-2.32,1.71,-6.59
1777399326148,1958646,-0.78,-0.50,0.36,-2.69,2.50,-6.53
1777399326148,1958656,-0.78,-0.50,0.35,-2.93,4.09,-6.65
1777399326148,1958666,-0.78,-0.48,0.34,-2.20,5.68,-7.08
1777399326148,1958676,-0.77,-0.47,0.34,-1.16,7.51,-6.71
1777399326149,1958686,-0.78,-0.48,0.34,0.06,9.77,-7.14
1777399326149,1958706,-0.76,-0.44,0.32,2.08,14.59,-7.26
1777399326149,1958726,-0.74,-0.46,0.31,5.31,16.05,-7.14
1777399326149,1958746,-0.71,-0.47,0.31,6.90,12.76,-5.92
1777399326149,1958766,-0.70,-0.48,0.31,9.58,6.10,-4.88
1777399326149,1958776,-0.69,-0.49,0.29,11.17,3.05,-4.27
1777399326149,1958786,-0.69,-0.50,0.30,13.24,2.08,-3.78
1777399326149,1958796,-0.69,-0.51,0.31,15.38,1.89,-3.72
1777399326149,1958806,-0.69,-0.51,0.33,16.60,1.71,-3.42
1777399326149,1958816,-0.70,-0.52,0.34,17.03,1.46,-2.26
1777399326150,1958826,-0.71,-0.52,0.35,16.85,0.92,-0.73
1777399326150,1958836,-0.72,-0.53,0.36,16.85,0.18,0.79
1777399326150,1958846,-0.73,-0.54,0.36,16.91,-0.73,1.89
1777399326150,1958856,-0.74,-0.55,0.36,16.30,-1.28,2.14
1777399326150,1958866,-0.74,-0.56,0.36,16.24,-1.65,1.16
1777399326150,1958876,-0.75,-0.55,0.36,17.03,-2.20,0.31
1777399326150,1958886,-0.75,-0.55,0.38,17.88,-2.62,1.10
1777399326150,1958896,-0.77,-0.56,0.40,17.46,-3.42,1.34
1777399326150,1958906,-0.77,-0.56,0.40,15.93,-4.94,0.67
1777399326150,1958916,-0.77,-0.57,0.40,14.04,-5.98,-0.49
1777399326150,1958926,-0.76,-0.57,0.39,12.51,-6.35,-2.26
1777399326151,1958936,-0.76,-0.57,0.39,11.35,-6.10,-3.66
1777399326151,1958946,-0.76,-0.57,0.39,10.56,-5.98,-4.70
1777399326151,1958956,-0.76,-0.57,0.39,10.19,-5.62,-5.62
1777399326151,1958966,-0.76,-0.57,0.41,10.01,-4.76,-7.02
1777399326151,1958976,-0.76,-0.57,0.41,10.07,-4.52,-8.36
1777399326151,1958986,-0.76,-0.56,0.40,9.40,-4.64,-9.83
1777399326151,1958996,-0.76,-0.57,0.43,8.42,-4.88,-11.05
1777399326151,1959006,-0.75,-0.57,0.41,8.18,-5.80,-12.27
1777399326151,1959016,-0.74,-0.56,0.41,7.75,-6.47,-13.49
1777399326151,1959026,-0.73,-0.56,0.41,7.02,-6.71,-14.04
1777399326152,1959036,-0.73,-0.56,0.42,6.53,-6.71,-15.01
1777399326152,1959056,-0.73,-0.53,0.42,3.72,-5.68,-16.66
1777399326152,1959076,-0.71,-0.52,0.39,2.81,-1.53,-14.95
1777399326152,1959096,-0.70,-0.53,0.38,0.79,1.95,-13.85
1777399326152,1959106,-0.71,-0.54,0.38,-0.37,1.65,-14.28
1777399326152,1959116,-0.72,-0.54,0.37,-0.12,0.00,-15.08
1777399326152,1959126,-0.71,-0.54,0.38,0.37,-2.08,-15.87
1777399326152,1959136,-0.71,-0.53,0.39,0.06,-4.39,-16.60
1777399326152,1959146,-0.72,-0.54,0.41,-2.14,-6.59,-17.82
1777399326152,1959156,-0.69,-0.53,0.41,-6.71,-8.91,-18.92
1777399326152,1959166,-0.70,-0.50,0.41,-13.73,-10.80,-19.17
1777399326153,1959176,-0.70,-0.53,0.41,-21.79,-11.41,-17.33
1777399326153,1959186,-0.71,-0.54,0.40,-27.04,-10.93,-14.95
1777399326153,1959196,-0.74,-0.58,0.41,-28.87,-9.16,-14.40
1777399326153,1959206,-0.72,-0.59,0.38,-27.47,-7.69,-16.24
1777399326153,1959216,-0.64,-0.64,0.40,-24.90,-5.49,-19.84
1777399326153,1959226,-0.62,-0.53,0.38,-20.26,-2.50,-23.56
1777399326153,1959236,-0.66,-0.64,0.44,-17.09,0.73,-14.04
1777399326153,1959246,-0.64,-0.61,0.54,-18.43,1.65,-8.30
1777399326153,1959256,-0.82,-0.72,0.51,-18.43,-1.59,-9.83
1777399326153,1959266,-0.82,-0.55,0.50,-20.14,-8.61,-18.86
1777399326154,1959276,-0.78,-0.63,0.55,-32.90,-14.65,-23.93
1777399326154,1959286,-0.73,-0.67,0.46,-37.35,-18.62,-23.13
1777399326154,1959296,-0.64,-0.67,0.51,-33.57,-20.08,-25.70
1777399326154,1959306,-0.77,-0.64,0.45,-34.73,-21.91,-32.10
1777399326154,1959316,-0.69,-0.71,0.38,-34.42,-18.92,-27.47
1777399326154,1959326,-0.64,-0.70,0.43,-27.89,-12.88,-25.02
1777399326154,1959336,-0.65,-0.69,0.47,-23.13,-9.22,-21.79
1777399326154,1959346,-0.67,-0.69,0.45,-26.86,-9.64,-19.04
1777399326154,1959356,-0.63,-0.67,0.47,-30.15,-11.60,-14.28
1777399326155,1959366,-0.65,-0.67,0.43,-36.07,-13.67,-9.09
1777399326155,1959376,-0.69,-0.69,0.43,-40.65,-13.24,-2.87
1777399326155,1959396,-0.66,-0.70,0.40,-45.59,-14.10,-4.15
1777399326155,1959416,-0.66,-0.72,0.32,-47.49,-14.59,-16.97
1777399326155,1959436,-0.64,-0.67,0.33,-48.52,-0.31,-20.69
1777399326155,1959456,-0.66,-0.76,0.38,-54.38,17.15,-12.02
1777399326155,1959466,-0.65,-0.74,0.40,-53.16,18.92,-7.14
1777399326155,1959476,-0.64,-0.74,0.42,-53.53,17.94,-3.05
1777399326155,1959486,-0.63,-0.74,0.41,-57.50,15.75,0.00
1777399326156,1959496,-0.61,-0.72,0.36,-61.71,13.31,2.44
1777399326156,1959506,-0.60,-0.70,0.30,-65.00,13.79,5.68
1777399326156,1959516,-0.59,-0.66,0.22,-66.83,16.17,10.13
1777399326156,1959526,-0.62,-0.65,0.20,-66.35,23.19,13.24
1777399326156,1959536,-0.62,-0.61,0.17,-64.09,29.11,13.12
1777399326156,1959546,-0.58,-0.52,0.17,-67.32,34.30,8.24
1777399326156,1959556,-0.68,-0.62,0.21,-81.24,43.15,10.56
1777399326157,1959566,-0.69,-0.63,0.15,-89.29,36.80,19.17
1777399326157,1959576,-0.72,-0.61,0.10,-87.16,24.72,15.14
1777399326157,1959586,-0.71,-0.56,0.00,-85.63,16.78,8.24
1777399326157,1959596,-0.69,-0.56,-0.06,-83.80,16.97,3.23
1777399326157,1959606,-0.71,-0.58,-0.11,-78.67,19.59,2.14
1777399326157,1959616,-0.72,-0.59,-0.14,-68.24,21.30,1.46
1777399326157,1959626,-0.73,-0.56,-0.16,-55.54,23.32,-0.79
1777399326157,1959636,-0.75,-0.57,-0.15,-44.01,24.11,-2.56
1777399326157,1959646,-0.78,-0.56,-0.13,-32.71,22.46,-3.85
1777399326157,1959656,-0.79,-0.51,-0.06,-24.29,19.65,-5.49
1777399326158,1959666,-0.85,-0.51,0.03,-25.94,16.91,-7.39
1777399326158,1959676,-0.86,-0.57,-0.02,-32.53,6.71,-10.62
1777399326158,1959686,-0.83,-0.57,-0.05,-32.53,-5.62,-14.71
1777399326158,1959696,-0.83,-0.60,-0.08,-28.32,-12.33,-19.90
1777399326158,1959706,-0.82,-0.61,-0.09,-20.87,-14.65,-21.36
1777399326158,1959716,-0.82,-0.62,-0.06,-11.05,-12.27,-21.97
1777399326158,1959726,-0.82,-0.62,-0.02,-2.69,-8.97,-20.20
1777399326158,1959746,-0.82,-0.63,0.05,2.93,-4.27,-19.47
1777399326158,1959766,-0.75,-0.64,0.07,-3.36,-2.81,-19.10
1777399326158,1959786,-0.64,-0.65,0.02,-9.95,-1.34,-14.59
1777399326158,1959806,-0.58,-0.68,-0.02,-10.99,1.77,-5.98
1777399326159,1959816,-0.55,-0.69,-0.03,-8.00,3.30,-1.89
1777399326159,1959826,-0.53,-0.70,-0.05,-5.07,5.37,0.79
1777399326159,1959836,-0.52,-0.71,-0.05,-2.81,6.77,2.87
1777399326159,1959846,-0.54,-0.71,-0.04,-0.92,6.23,4.70
1777399326159,1959856,-0.55,-0.72,-0.04,0.43,3.17,6.47
1777399326159,1959866,-0.56,-0.73,-0.04,0.79,-0.12,7.57
1777399326159,1959876,-0.57,-0.72,-0.05,0.55,-2.81,7.51
1777399326159,1959886,-0.56,-0.71,-0.06,-0.67,-3.54,6.47
1777399326159,1959896,-0.56,-0.71,-0.08,-3.48,-3.60,6.77
1777399326159,1959906,-0.57,-0.72,-0.09,-5.74,-3.72,8.91
1777399326160,1959916,-0.59,-0.72,-0.10,-5.55,-3.17,11.96
1777399326160,1959926,-0.62,-0.71,-0.10,-3.54,-1.95,14.28
1777399326160,1959936,-0.66,-0.71,-0.09,-1.28,-0.73,15.56
1777399326160,1959946,-0.71,-0.70,-0.07,0.37,-0.37,16.17
1777399326160,1959956,-0.74,-0.70,-0.06,1.59,-1.10,15.81
1777399326160,1959966,-0.79,-0.69,-0.04,2.44,-1.53,13.85
1777399326160,1959976,-0.82,-0.68,-0.04,3.30,-1.95,11.72
1777399326160,1959986,-0.84,-0.68,-0.02,3.30,-1.46,8.48
1777399326160,1959996,-0.86,-0.69,0.01,1.83,-1.34,4.70
1777399326160,1960006,-0.86,-0.67,-0.01,-0.24,-1.22,0.67
1777399326160,1960016,-0.85,-0.66,-0.02,-2.44,0.24,-2.38
1777399326161,1960026,-0.83,-0.66,-0.04,-3.54,3.30,-3.42
1777399326161,1960036,-0.80,-0.64,-0.07,-3.23,7.57,-4.33
1777399326161,1960046,-0.77,-0.62,-0.10,-1.59,12.57,-5.98
1777399326161,1960056,-0.74,-0.61,-0.09,0.92,16.72,-8.00
1777399326161,1960066,-0.71,-0.60,-0.11,3.97,18.43,-9.83
1777399326161,1960086,-0.63,-0.56,-0.12,11.54,15.32,-14.16
1777399326161,1960106,-0.54,-0.52,-0.16,9.77,8.24,-13.24
1777399326161,1960126,-0.47,-0.49,-0.19,12.63,6.35,-3.72
1777399326161,1960146,-0.46,-0.47,-0.19,20.81,4.03,1.77
1777399326161,1960156,-0.46,-0.46,-0.18,24.84,1.65,3.05
1777399326162,1960166,-0.47,-0.47,-0.16,28.56,-2.81,3.91
1777399326162,1960176,-0.46,-0.47,-0.15,32.10,-10.74,4.09
1777399326162,1960186,-0.46,-0.47,-0.15,36.07,-20.94,4.03
1777399326162,1960196,-0.45,-0.46,-0.14,40.28,-30.58,3.78
1777399326162,1960206,-0.43,-0.44,-0.14,44.13,-39.12,3.60
1777399326162,1960216,-0.44,-0.45,-0.14,47.97,-45.53,4.64
1777399326162,1960226,-0.48,-0.48,-0.11,54.99,-51.15,6.90
1777399326162,1960236,-0.55,-0.51,-0.03,66.96,-54.44,7.51
1777399326162,1960246,-0.59,-0.52,0.04,78.92,-57.43,4.94
1777399326162,1960256,-0.62,-0.53,0.12,86.67,-60.67,0.43
1777399326163,1960266,-0.61,-0.53,0.20,89.29,-64.51,-5.13
1777399326163,1960276,-0.59,-0.51,0.24,86.49,-70.13,-9.89
1777399326163,1960286,-0.51,-0.49,0.21,78.43,-75.13,-10.74
1777399326163,1960296,-0.43,-0.47,0.14,68.79,-74.65,-6.77
1777399326163,1960306,-0.37,-0.45,0.07,62.81,-65.25,2.81
1777399326163,1960316,-0.33,-0.43,0.03,62.99,-48.10,15.81
1777399326163,1960326,-0.39,-0.43,0.08,67.38,-28.50,27.77
1777399326163,1960336,-0.51,-0.47,0.20,74.83,-15.93,38.21
1777399326163,1960346,-0.67,-0.51,0.35,84.05,-15.63,44.49
1777399326163,1960356,-0.77,-0.51,0.48,87.89,-24.72,42.54
1777399326164,1960366,-0.83,-0.51,0.55,80.20,-39.61,35.83
1777399326164,1960376,-0.94,-0.59,0.53,67.93,-56.82,32.53
1777399326164,1960386,-1.08,-0.73,0.52,62.74,-70.56,30.21
1777399326164,1960396,-1.21,-0.89,0.53,61.52,-80.32,19.04
1777399326164,1960406,-1.26,-1.24,0.48,53.77,-97.47,0.37
1777399326164,1960416,-1.35,-1.79,0.28,41.56,-176.39,-52.25
1777399326164,1960436,-1.76,-3.55,-0.21,105.90,-207.76,-120.48
1777399326164,1960456,-2.46,-4.00,1.36,122.56,-149.54,-137.51
1777399326164,1960476,-2.50,-4.00,3.05,-48.58,-23.93,-75.81
1777399326165,1960496,-2.19,-2.81,3.22,-374.76,169.43,-3.66
1777399326165,1960506,-1.95,-1.95,3.00,-486.15,253.17,15.08
1777399326165,1960516,-1.61,-1.16,2.78,-538.09,309.57,16.78
1777399326165,1960526,-1.18,-0.45,2.52,-546.51,332.03,-0.49
1777399326165,1960536,-0.64,0.26,2.22,-524.60,323.97,-22.46
1777399326165,1960546,-0.09,0.89,1.81,-484.01,297.36,-31.07
1777399326165,1960556,0.30,1.16,1.49,-438.66,265.20,-21.12
1777399326165,1960566,0.51,1.19,1.45,-392.27,218.75,-10.68
1777399326165,1960576,0.77,1.17,1.31,-344.54,139.40,-8.67
1777399326165,1960586,1.08,1.16,1.08,-300.48,54.75,-10.44
1777399326166,1960596,1.37,1.33,0.74,-261.84,-5.86,-8.00
1777399326166,1960606,1.52,1.51,0.40,-234.50,-29.17,15.99
1777399326166,1960616,1.41,1.51,0.14,-220.58,-25.70,68.54
1777399326166,1960626,1.09,1.46,-0.02,-210.39,-14.04,133.18
1777399326166,1960636,0.51,1.35,-0.09,-192.81,-5.13,191.65
1777399326166,1960646,-0.10,1.14,-0.12,-163.70,3.78,221.56
1777399326166,1960656,-0.62,0.85,-0.08,-123.35,19.10,203.80
1777399326166,1960666,-0.91,0.61,0.02,-75.62,35.28,142.27
1777399326166,1960676,-1.03,0.58,0.25,-21.18,39.79,64.45
1777399326167,1960686,-0.95,0.72,0.45,26.31,22.58,3.17
1777399326167,1960696,-0.82,0.80,0.50,46.02,-8.18,-31.19
1777399326167,1960706,-0.70,0.79,0.42,40.04,-32.59,-46.45
1777399326167,1960716,-0.62,0.73,0.29,20.20,-40.41,-50.35
1777399326167,1960726,-0.59,0.62,0.17,-0.31,-33.87,-48.65
1777399326167,1960736,-0.59,0.49,0.02,-10.25,-19.29,-46.20
1777399326167,1960746,-0.60,0.38,-0.09,-11.05,-0.55,-48.03
1777399326167,1960756,-0.60,0.29,-0.20,-7.26,16.24,-72.39
1777399326167,1960776,-0.56,0.16,-0.40,22.83,20.94,-84.29
1777399326167,1960796,-0.47,-0.14,-0.59,64.15,-12.57,-75.44
1777399326168,1960816,-0.40,-0.28,-0.52,85.39,-29.11,-54.20
1777399326168,1960836,-0.49,-0.55,-0.58,85.57,-40.28,-41.75
1777399326168,1960846,-0.58,-0.68,-0.46,86.06,-40.53,-46.57
1777399326168,1960856,-0.62,-0.71,-0.49,90.94,-40.89,-56.70
1777399326168,1960866,-0.60,-0.69,-0.53,94.12,-38.88,-65.98
1777399326168,1960876,-0.58,-0.65,-0.51,96.07,-28.75,-69.27
1777399326168,1960886,-0.55,-0.64,-0.47,96.13,-18.62,-63.60
1777399326168,1960896,-0.53,-0.68,-0.42,92.41,-11.54,-51.51
1777399326168,1960906,-0.51,-0.72,-0.41,86.85,-10.50,-38.82
1777399326168,1960916,-0.46,-0.75,-0.41,84.84,-13.61,-26.86
1777399326169,1960926,-0.48,-0.77,-0.38,87.28,-17.03,-17.09
1777399326169,1960936,-0.46,-0.79,-0.43,93.81,-20.63,-11.11
1777399326169,1960946,-0.45,-0.76,-0.39,100.89,-19.35,-10.50
1777399326169,1960956,-0.45,-0.69,-0.33,106.08,-18.92,-11.84
1777399326169,1960966,-0.46,-0.63,-0.31,105.71,-21.42,-8.67
1777399326169,1960976,-0.48,-0.62,-0.32,102.42,-23.68,-0.55
1777399326169,1960986,-0.50,-0.65,-0.38,97.23,-24.35,10.31
1777399326169,1960996,-0.51,-0.67,-0.42,91.80,-19.84,20.81
1777399326169,1961006,-0.56,-0.72,-0.43,89.11,-12.94,27.83
1777399326169,1961016,-0.61,-0.78,-0.41,90.58,-8.97,30.52
1777399326170,1961026,-0.63,-0.81,-0.39,96.19,-10.01,28.93
1777399326170,1961036,-0.62,-0.82,-0.37,103.64,-14.95,24.66
1777399326170,1961046,-0.60,-0.84,-0.35,110.90,-20.57,20.39
1777399326170,1961056,-0.61,-0.82,-0.30,117.49,-26.61,17.76
1777399326170,1961066,-0.64,-0.80,-0.26,121.89,-34.18,19.65
1777399326170,1961076,-0.71,-0.82,-0.22,121.46,-40.28,25.39
1777399326170,1961086,-0.79,-0.88,-0.18,115.66,-42.79,28.75
1777399326170,1961096,-0.84,-0.93,-0.16,106.69,-43.40,26.43
1777399326170,1961106,-0.85,-0.98,-0.16,97.78,-44.01,16.66
1777399326170,1961126,-0.82,-1.04,-0.13,97.78,-47.24,6.53
1777399326171,1961146,-0.74,-0.98,-0.04,99.55,-46.14,2.87
1777399326171,1961166,-0.82,-0.96,0.02,89.54,-38.70,6.84
1777399326171,1961186,-0.84,-0.97,0.02,64.45,-33.26,4.64
1777399326171,1961196,-0.81,-0.98,-0.01,52.55,-31.43,3.23
1777399326171,1961206,-0.79,-0.98,-0.05,45.04,-28.56,2.69
1777399326171,1961216,-0.77,-0.98,-0.06,42.42,-24.11,2.56
1777399326171,1961226,-0.74,-0.96,-0.04,42.72,-20.02,2.56
1777399326171,1961236,-0.74,-0.94,-0.03,43.46,-16.91,1.95
1777399326171,1961246,-0.72,-0.92,-0.02,43.58,-14.59,0.12
1777399326172,1961256,-0.71,-0.88,-0.01,43.40,-12.63,-1.83
1777399326172,1961266,-0.71,-0.87,0.01,41.50,-11.17,-2.62
1777399326172,1961276,-0.72,-0.84,0.02,37.72,-11.05,-3.72
1777399326172,1961286,-0.72,-0.81,0.04,33.14,-12.08,-6.84
1777399326172,1961296,-0.68,-0.79,0.04,28.14,-14.59,-9.52
1777399326172,1961306,-0.64,-0.76,0.03,22.28,-17.52,-9.64
1777399326172,1961316,-0.60,-0.74,0.03,15.99,-19.35,-6.90
1777399326172,1961326,-0.57,-0.71,0.00,10.80,-20.20,-1.77
1777399326172,1961336,-0.57,-0.69,-0.02,8.54,-18.74,2.69
1777399326172,1961346,-0.59,-0.69,-0.02,10.25,-15.14,3.60
1777399326173,1961356,-0.61,-0.70,0.01,15.44,-12.08,1.59
1777399326173,1961366,-0.61,-0.69,0.05,21.61,-12.33,-1.65
1777399326173,1961376,-0.61,-0.69,0.09,25.94,-16.85,-4.52
1777399326173,1961386,-0.60,-0.68,0.12,26.92,-25.09,-7.45
1777399326173,1961396,-0.58,-0.67,0.12,26.31,-35.22,-10.19
1777399326173,1961406,-0.55,-0.65,0.11,26.86,-43.82,-11.35
1777399326173,1961416,-0.52,-0.63,0.12,28.08,-49.74,-11.72
1777399326173,1961426,-0.49,-0.61,0.13,27.95,-53.65,-11.66
1777399326173,1961436,-0.49,-0.61,0.13,26.73,-55.24,-11.11
1777399326173,1961446,-0.48,-0.63,0.14,27.28,-54.93,-11.11
1777399326174,1961466,-0.46,-0.64,0.17,41.32,-52.19,-10.07
1777399326174,1961486,-0.48,-0.62,0.26,38.88,-55.73,-9.89
1777399326174,1961506,-0.51,-0.63,0.29,27.83,-64.94,-9.22
1777399326174,1961526,-0.46,-0.61,0.23,25.88,-67.57,-8.30
1777399326174,1961536,-0.44,-0.59,0.21,28.26,-64.03,-7.45
1777399326174,1961546,-0.39,-0.55,0.20,31.43,-60.12,-7.32
1777399326174,1961556,-0.34,-0.51,0.18,34.30,-57.92,-5.07
1777399326174,1961566,-0.27,-0.45,0.13,36.32,-56.70,0.12
1777399326175,1961576,-0.21,-0.40,0.09,39.25,-53.65,7.57
1777399326175,1961586,-0.17,-0.33,0.06,44.13,-45.84,16.24
1777399326175,1961596,-0.14,-0.26,0.07,48.46,-35.22,25.39
1777399326175,1961606,-0.16,-0.22,0.12,50.29,-28.50,35.77
1777399326175,1961616,-0.28,-0.29,0.21,50.78,-33.57,45.59
1777399326175,1961626,-0.57,-0.39,0.35,57.01,-54.50,46.63
1777399326175,1961636,-0.88,-0.72,0.53,68.12,-92.35,37.05
1777399326175,1961646,-1.13,-1.33,0.55,76.42,-143.68,13.79
1777399326175,1961656,-1.35,-2.62,0.30,66.10,-189.15,-16.54
1777399326176,1961666,-1.79,-4.00,0.02,42.48,-212.04,-48.58
1777399326176,1961676,-2.59,-4.00,0.29,57.56,-201.54,-77.27
1777399326176,1961686,-3.65,-4.00,1.99,159.97,-157.04,-97.47
1777399326176,1961696,-4.00,-4.00,4.00,249.21,-100.77,-114.87
1777399326176,1961706,-3.82,-4.00,4.00,155.46,-67.32,-127.20
1777399326176,1961716,-2.66,-4.00,4.00,-156.49,8.24,-105.35
1777399326176,1961726,-1.78,-3.20,4.00,-558.47,145.94,6.35
1777399326176,1961736,-1.55,-1.74,4.00,-814.15,342.90,129.27
1777399326176,1961746,-1.32,-0.50,4.00,-894.47,510.50,190.31
1777399326177,1961756,-0.81,0.45,3.66,-872.13,572.45,172.61
1777399326177,1961766,-0.02,1.36,3.37,-782.04,522.09,108.22
1777399326177,1961776,1.23,1.94,3.01,-656.37,391.54,30.15
1777399326177,1961786,2.31,2.25,2.95,-502.75,233.34,-50.23
1777399326177,1961796,3.41,2.84,2.87,-331.48,82.03,-97.41
1777399326177,1961816,4.00,4.00,1.09,-154.97,63.11,179.93
1777399326177,1961836,0.50,2.92,1.15,-217.90,98.94,363.83
1777399326177,1961856,-0.72,1.65,0.25,-126.89,-56.46,167.24
1777399326177,1961876,-0.72,1.65,0.06,-0.31,-83.92,2.32
1777399326177,1961886,-0.67,1.61,-0.14,10.74,-89.23,-1.10
1777399326178,1961896,-0.73,1.26,-0.33,-1.34,-81.24,8.00
1777399326178,1961906,-0.85,0.83,-0.44,-3.72,-66.77,10.31
1777399326178,1961916,-0.98,0.57,-0.45,9.70,-54.08,1.83
1777399326178,1961926,-1.09,0.38,-0.44,29.79,-46.69,-9.09
1777399326178,1961936,-1.16,0.11,-0.48,48.89,-43.15,-19.96
1777399326178,1961946,-1.13,-0.17,-0.50,66.59,-37.48,-35.95
1777399326178,1961956,-1.07,-0.36,-0.52,81.12,-32.17,-54.26
1777399326178,1961966,-0.99,-0.49,-0.54,93.32,-32.23,-65.06
1777399326178,1961976,-0.92,-0.51,-0.57,106.51,-34.67,-62.38
1777399326178,1961986,-0.89,-0.51,-0.57,118.41,-33.57,-48.95
1777399326179,1961996,-0.92,-0.54,-0.51,126.46,-26.79,-33.08
1777399326179,1962006,-1.01,-0.56,-0.41,132.02,-18.13,-20.75
1777399326179,1962016,-1.11,-0.60,-0.29,133.42,-11.17,-14.47
1777399326179,1962026,-1.27,-0.57,-0.04,126.53,-7.87,-18.55
1777399326179,1962036,-1.11,-0.68,-0.31,114.44,-16.48,-32.71
1777399326179,1962046,-1.11,-0.76,-0.20,105.10,-20.69,-54.93
1777399326179,1962056,-1.00,-0.73,-0.29,106.75,-32.78,-74.52
1777399326179,1962066,-0.84,-0.75,-0.35,111.63,-41.87,-83.56
1777399326179,1962076,-0.73,-0.75,-0.34,119.26,-43.15,-84.59
1777399326179,1962086,-0.63,-0.71,-0.32,128.30,-42.24,-78.55
1777399326180,1962096,-0.56,-0.67,-0.27,134.46,-37.84,-65.43
1777399326180,1962106,-0.55,-0.63,-0.12,138.00,-30.03,-49.68
1777399326180,1962116,-0.54,-0.75,-0.20,139.04,-18.62,-36.74
1777399326180,1962126,-0.67,-0.68,-0.12,136.11,-1.28,-40.83
1777399326180,1962136,-0.71,-0.56,-0.01,130.25,4.52,-49.19
1777399326180,1962156,-0.59,-0.68,-0.12,74.95,-18.25,-42.42
1777399326180,1962176,-0.51,-0.70,-0.31,70.25,-25.82,-23.62
1777399326180,1962196,-0.47,-0.70,-0.32,82.15,-19.23,-14.77
1777399326180,1962216,-0.49,-0.75,-0.20,102.60,-16.60,-14.65
1777399326180,1962226,-0.50,-0.77,-0.16,111.33,-26.37,-17.64
1777399326181,1962236,-0.50,-0.79,-0.12,116.58,-40.53,-21.73
1777399326181,1962246,-0.50,-0.81,-0.08,115.91,-55.30,-24.66
1777399326181,1962256,-0.50,-0.83,-0.09,112.49,-69.76,-23.50
1777399326181,1962266,-0.52,-0.84,-0.12,109.19,-79.65,-17.21
1777399326181,1962276,-0.53,-0.87,-0.17,107.30,-78.92,-7.69
1777399326181,1962286,-0.62,-0.89,-0.14,106.32,-68.12,1.65
1777399326181,1962296,-0.73,-0.93,-0.10,106.93,-54.87,7.57
1777399326181,1962306,-0.83,-0.99,-0.06,110.78,-43.88,7.87
1777399326181,1962316,-0.89,-1.05,-0.03,117.92,-36.44,0.85
1777399326182,1962326,-0.92,-1.06,0.03,126.59,-34.00,-11.72
1777399326182,1962336,-0.89,-1.06,0.12,133.67,-37.72,-25.88
1777399326182,1962346,-0.82,-1.01,0.17,133.36,-47.30,-37.41
1777399326182,1962356,-0.75,-0.98,0.21,124.51,-58.17,-42.48
1777399326182,1962366,-0.70,-0.96,0.22,111.08,-66.47,-41.08
1777399326182,1962376,-0.67,-0.96,0.21,97.17,-68.05,-36.25
1777399326182,1962386,-0.67,-0.97,0.21,83.01,-62.81,-29.85
1777399326182,1962396,-0.65,-0.97,0.20,70.13,-54.69,-22.34
1777399326182,1962406,-0.66,-0.95,0.16,60.49,-43.76,-15.20
1777399326183,1962416,-0.66,-0.97,0.15,55.24,-28.14,-9.16
1777399326183,1962426,-0.67,-0.99,0.15,54.63,-11.11,-5.37
1777399326183,1962436,-0.69,-0.97,0.19,56.46,1.22,-5.31
1777399326183,1962446,-0.70,-0.96,0.25,58.11,5.92,-7.57
1777399326183,1962456,-0.69,-0.94,0.30,57.01,2.50,-10.93
1777399326183,1962466,-0.67,-0.91,0.33,52.49,-5.43,-14.71
1777399326183,1962476,-0.64,-0.90,0.34,46.20,-14.04,-17.15
1777399326183,1962486,-0.61,-0.88,0.34,40.28,-20.32,-14.89
1777399326183,1962506,-0.60,-0.80,0.31,26.31,-22.40,-3.60
1777399326183,1962526,-0.59,-0.81,0.16,37.90,-6.16,-1.40
1777399326184,1962546,-0.62,-0.75,0.25,57.86,17.76,-6.59
1777399326184,1962566,-0.61,-0.74,0.40,68.05,4.52,-7.45
1777399326184,1962576,-0.59,-0.71,0.39,67.14,-5.55,-11.05
1777399326184,1962586,-0.57,-0.73,0.36,58.59,-15.75,-13.67
1777399326184,1962596,-0.59,-0.71,0.41,59.75,-23.25,-13.79
1777399326184,1962606,-0.55,-0.82,0.35,64.94,-30.21,-16.60
1777399326184,1962616,-0.47,-0.83,0.31,76.60,-30.70,-22.34
1777399326184,1962626,-0.46,-0.81,0.33,93.57,-22.40,-23.80
1777399326185,1962636,-0.45,-0.75,0.35,115.42,-13.06,-26.37
1777399326185,1962646,-0.45,-0.70,0.53,127.81,-8.85,-26.86
1777399326185,1962656,-0.47,-0.68,0.54,123.41,-14.71,-21.48
1777399326185,1962666,-0.47,-0.77,0.47,108.22,-20.08,-19.78
1777399326185,1962676,-0.45,-0.81,0.36,99.91,-17.88,-23.80
1777399326185,1962686,-0.45,-0.80,0.33,110.90,-11.72,-29.11
1777399326185,1962696,-0.46,-0.75,0.29,131.35,-0.24,-34.00
1777399326186,1962706,-0.45,-0.65,0.29,154.30,17.82,-38.94
1777399326186,1962716,-0.46,-0.48,0.34,166.26,40.04,-48.22
1777399326186,1962726,-0.48,-0.38,0.49,155.40,62.44,-53.77
1777399326186,1962736,-0.54,-0.31,0.66,137.02,75.56,-49.38
1777399326186,1962746,-0.61,-0.24,0.83,124.82,72.57,-38.09
1777399326186,1962756,-0.66,-0.26,0.94,110.66,55.48,-20.75
1777399326186,1962766,-0.68,-0.27,1.04,99.37,28.81,-2.50
1777399326186,1962776,-0.65,-0.35,0.92,87.40,-4.52,13.49
1777399326186,1962786,-0.62,-0.43,0.74,69.21,-25.94,20.51
1777399326186,1962796,-0.59,-0.53,0.63,57.56,-31.25,21.97
1777399326187,1962806,-0.55,-0.53,0.62,54.14,-24.90,17.21
1777399326187,1962816,-0.54,-0.47,0.67,48.22,-17.03,11.60
1777399326187,1962826,-0.56,-0.45,0.70,39.18,-11.41,9.58
1777399326187,1962836,-0.56,-0.44,0.73,33.57,-9.52,12.70
1777399326187,1962856,-0.56,-0.41,0.71,12.08,-16.36,17.27
1777399326187,1962876,-0.61,-0.41,0.67,-0.49,-16.48,21.30
1777399326187,1962896,-0.61,-0.42,0.69,-6.16,-18.92,21.00
1777399326187,1962906,-0.60,-0.44,0.71,-11.78,-19.53,19.90
1777399326187,1962916,-0.60,-0.46,0.69,-15.69,-20.02,19.71
1777399326188,1962926,-0.61,-0.46,0.67,-13.55,-19.78,21.18
1777399326188,1962936,-0.58,-0.46,0.63,-11.78,-18.43,22.09
1777399326188,1962946,-0.61,-0.46,0.60,-15.75,-14.53,21.85
1777399326188,1962956,-0.64,-0.48,0.59,-17.94,-9.09,21.06
1777399326188,1962966,-0.65,-0.49,0.59,-15.69,-3.72,17.76
1777399326188,1962976,-0.66,-0.49,0.59,-10.01,0.24,13.92
1777399326188,1962986,-0.66,-0.50,0.60,-2.93,3.23,10.86
1777399326188,1962996,-0.67,-0.51,0.61,4.15,5.19,6.96
1777399326188,1963006,-0.66,-0.51,0.63,10.68,5.13,3.42
1777399326188,1963016,-0.63,-0.48,0.61,15.69,2.99,0.92
1777399326189,1963026,-0.63,-0.44,0.60,16.42,0.85,0.31
1777399326189,1963036,-0.62,-0.43,0.59,14.83,1.28,1.46
1777399326189,1963046,-0.63,-0.43,0.59,14.28,3.85,4.15
1777399326189,1963056,-0.64,-0.45,0.58,13.67,5.62,6.77
1777399326189,1963066,-0.65,-0.45,0.62,12.15,7.08,7.57
1777399326189,1963076,-0.69,-0.44,0.63,9.77,3.91,7.32
1777399326189,1963086,-0.69,-0.46,0.65,7.93,-2.26,6.71
1777399326189,1963096,-0.69,-0.48,0.64,8.36,-10.56,5.13
1777399326189,1963106,-0.66,-0.47,0.62,11.84,-17.88,3.48
1777399326189,1963116,-0.63,-0.48,0.59,15.99,-21.85,2.99
1777399326190,1963126,-0.64,-0.47,0.58,17.03,-21.00,1.16
1777399326190,1963136,-0.63,-0.47,0.59,17.27,-17.40,-1.16
1777399326190,1963146,-0.62,-0.45,0.62,16.91,-12.33,-2.81
1777399326190,1963156,-0.62,-0.44,0.63,15.44,-8.18,-3.48
1777399326190,1963166,-0.61,-0.42,0.65,11.60,-4.76,-3.05
1777399326190,1963176,-0.61,-0.41,0.64,4.94,-3.05,0.24
1777399326190,1963196,-0.61,-0.42,0.64,-9.09,-1.40,1.95
1777399326190,1963216,-0.62,-0.47,0.62,-6.35,-0.31,4.88
1777399326190,1963236,-0.62,-0.47,0.66,-1.22,2.87,4.94
1777399326190,1963256,-0.68,-0.44,0.72,2.56,1.16,3.36
1777399326191,1963266,-0.67,-0.43,0.74,1.28,-2.69,2.38
1777399326191,1963276,-0.65,-0.42,0.74,-2.14,-7.51,2.26
1777399326191,1963286,-0.64,-0.42,0.72,-7.14,-11.96,2.81
1777399326191,1963296,-0.63,-0.43,0.70,-11.66,-14.28,3.97
1777399326191,1963306,-0.62,-0.45,0.69,-13.73,-13.61,4.94
1777399326191,1963316,-0.62,-0.46,0.68,-12.94,-11.41,5.55
1777399326191,1963326,-0.60,-0.45,0.70,-11.05,-8.36,5.55
1777399326191,1963336,-0.62,-0.42,0.70,-13.79,-4.39,5.13
1777399326191,1963346,-0.65,-0.42,0.68,-16.66,-1.16,4.03
1777399326191,1963356,-0.67,-0.43,0.71,-17.88,1.65,3.30
1777399326192,1963366,-0.66,-0.42,0.71,-17.76,0.37,1.95
1777399326192,1963376,-0.66,-0.44,0.72,-16.48,-4.09,0.79
1777399326192,1963386,-0.65,-0.43,0.71,-14.77,-10.13,0.24
1777399326192,1963396,-0.64,-0.41,0.68,-11.84,-15.32,0.00
1777399326192,1963406,-0.63,-0.42,0.66,-10.44,-17.94,-0.85
1777399326192,1963416,-0.61,-0.42,0.66,-9.64,-19.29,-2.44
1777399326192,1963426,-0.59,-0.42,0.64,-7.93,-19.90,-3.54
1777399326192,1963436,-0.58,-0.43,0.61,-5.13,-19.53,-3.91
1777399326192,1963446,-0.58,-0.43,0.59,0.55,-17.58,-3.91
1777399326193,1963456,-0.57,-0.40,0.59,6.65,-14.22,-4.46
1777399326193,1963466,-0.58,-0.38,0.61,9.70,-11.72,-5.00
1777399326193,1963476,-0.59,-0.38,0.63,10.99,-11.47,-5.37
1777399326193,1963486,-0.60,-0.38,0.65,11.60,-13.98,-5.62
1777399326193,1963496,-0.60,-0.39,0.65,13.49,-17.76,-5.86
1777399326193,1963506,-0.59,-0.41,0.65,16.42,-20.51,-6.23
1777399326193,1963516,-0.58,-0.39,0.65,18.74,-21.42,-7.08
1777399326193,1963526,-0.57,-0.38,0.65,17.82,-20.75,-6.71
1777399326193,1963546,-0.57,-0.39,0.66,11.66,-15.75,-3.23
1777399326193,1963566,-0.59,-0.40,0.68,9.95,-12.94,-1.95
1777399326194,1963586,-0.60,-0.41,0.69,8.24,-10.86,-2.44
1777399326194,1963606,-0.60,-0.41,0.70,7.81,-8.97,-2.69
1777399326194,1963616,-0.60,-0.42,0.71,7.63,-8.06,-2.62
1777399326194,1963626,-0.60,-0.41,0.71,6.59,-7.63,-3.05
1777399326194,1963636,-0.60,-0.41,0.71,4.82,-7.69,-2.87
1777399326194,1963646,-0.60,-0.41,0.70,2.87,-7.45,-1.65
1777399326194,1963656,-0.60,-0.41,0.70,1.65,-6.53,0.06
1777399326194,1963666,-0.62,-0.42,0.71,0.43,-6.10,0.98
1777399326194,1963676,-0.63,-0.42,0.70,-0.12,-7.08,0.61
1777399326194,1963686,-0.62,-0.42,0.68,-0.43,-7.63,0.12
1777399326195,1963696,-0.62,-0.43,0.67,-1.04,-6.35,-1.10
1777399326195,1963706,-0.61,-0.44,0.67,-1.95,-4.88,-2.62
1777399326195,1963716,-0.60,-0.45,0.67,-1.59,-4.76,-3.17
1777399326195,1963726,-0.59,-0.45,0.67,0.31,-5.25,-2.56
1777399326195,1963736,-0.60,-0.45,0.68,1.89,-6.10,-1.77
1777399326195,1963746,-0.59,-0.44,0.68,2.32,-7.08,-1.53
1777399326195,1963756,-0.58,-0.44,0.67,0.92,-8.54,-1.59
1777399326195,1963766,-0.58,-0.43,0.66,-0.18,-8.85,-0.92
1777399326195,1963776,-0.58,-0.43,0.66,-0.73,-7.69,0.49
1777399326195,1963786,-0.59,-0.44,0.68,-1.04,-6.41,1.34
1777399326196,1963796,-0.60,-0.43,0.68,-1.16,-6.10,1.89
1777399326196,1963806,-0.61,-0.42,0.68,-1.40,-6.10,2.75
1777399326196,1963816,-0.63,-0.43,0.69,-1.83,-5.43,2.87
1777399326196,1963826,-0.63,-0.42,0.69,-2.69,-4.58,1.34
1777399326196,1963836,-0.63,-0.41,0.68,-3.78,-4.58,0.43
1777399326196,1963846,-0.63,-0.41,0.67,-4.27,-4.09,0.98
1777399326196,1963856,-0.64,-0.42,0.67,-4.88,-2.81,1.28
1777399326196,1963866,-0.64,-0.41,0.67,-5.25,-1.65,0.85
1777399326196,1963886,-0.63,-0.41,0.65,-4.58,-0.98,1.22
1777399326196,1963906,-0.65,-0.40,0.65,-4.03,-2.38,-0.06
1777399326197,1963926,-0.65,-0.40,0.64,-3.85,-2.56,-1.22
1777399326197,1963946,-0.63,-0.40,0.63,-2.81,-2.08,-3.54
1777399326197,1963956,-0.62,-0.40,0.63,-2.50,-1.83,-4.27
1777399326197,1963966,-0.62,-0.40,0.63,-1.65,-1.40,-3.48
1777399326197,1963976,-0.62,-0.40,0.63,-0.79,-1.10,-3.11
1777399326197,1963986,-0.63,-0.40,0.63,-0.49,-1.22,-3.42
1777399326197,1963996,-0.63,-0.40,0.63,-0.18,-2.08,-3.66
1777399326197,1964006,-0.63,-0.40,0.63,0.43,-2.93,-4.09
1777399326197,1964016,-0.62,-0.40,0.63,0.67,-3.78,-5.07
1777399326197,1964026,-0.62,-0.40,0.63,0.67,-4.09,-5.86
1777399326198,1964036,-0.61,-0.40,0.62,0.92,-3.48,-6.90
1777399326198,1964046,-0.60,-0.40,0.62,1.40,-2.01,-7.39
1777399326198,1964056,-0.60,-0.40,0.63,2.26,-0.55,-7.57
1777399326198,1964066,-0.61,-0.41,0.65,3.42,-0.12,-7.20
1777399326198,1964076,-0.61,-0.40,0.66,4.94,-0.92,-6.84
1777399326198,1964086,-0.60,-0.40,0.67,5.62,-2.62,-7.45
1777399326198,1964096,-0.59,-0.39,0.68,5.68,-3.97,-7.87
1777399326198,1964106,-0.58,-0.39,0.68,5.74,-4.39,-7.75
1777399326198,1964116,-0.57,-0.39,0.68,5.92,-4.58,-7.57
1777399326198,1964126,-0.57,-0.39,0.69,5.98,-4.33,-7.81
1777399326199,1964136,-0.57,-0.38,0.69,5.37,-3.78,-8.30
1777399326199,1964146,-0.57,-0.38,0.69,3.85,-3.54,-8.61
1777399326199,1964156,-0.56,-0.38,0.69,2.81,-3.97,-8.36
1777399326199,1964166,-0.56,-0.39,0.68,2.44,-4.39,-7.63
1777399326199,1964176,-0.57,-0.40,0.67,2.50,-4.64,-6.29
1777399326199,1964186,-0.59,-0.40,0.68,2.99,-4.82,-5.43
1777399326199,1964196,-0.60,-0.40,0.68,3.72,-6.35,-5.62
1777399326199,1964206,-0.60,-0.39,0.67,4.52,-8.67,-6.53
1777399326199,1964216,-0.60,-0.39,0.66,5.07,-10.13,-7.93
1777399326199,1964236,-0.59,-0.39,0.66,6.71,-8.00,-7.69
1777399326200,1964256,-0.60,-0.38,0.66,4.94,-6.65,-6.84
1777399326200,1964276,-0.58,-0.38,0.62,2.44,-6.35,-5.49
1777399326200,1964296,-0.60,-0.38,0.60,0.73,-2.87,-4.76
1777399326200,1964306,-0.60,-0.38,0.60,-0.43,-1.83,-6.04
1777399326200,1964316,-0.60,-0.37,0.59,-2.50,-1.53,-8.42
1777399326200,1964326,-0.59,-0.36,0.58,-5.80,-0.67,-10.62
1777399326200,1964336,-0.58,-0.36,0.58,-9.83,1.71,-11.17
1777399326200,1964346,-0.61,-0.35,0.59,-15.08,5.00,-11.66
1777399326200,1964356,-0.63,-0.36,0.61,-19.04,7.63,-10.50
1777399326200,1964366,-0.65,-0.34,0.63,-24.17,8.42,-11.47
1777399326201,1964376,-0.67,-0.29,0.64,-33.57,7.14,-14.77
1777399326201,1964386,-0.67,-0.27,0.63,-47.91,6.23,-17.46
1777399326201,1964396,-0.68,-0.31,0.63,-66.16,4.94,-21.18
1777399326201,1964406,-0.67,-0.40,0.61,-79.47,1.71,-23.13
1777399326201,1964416,-0.65,-0.46,0.58,-84.59,-2.87,-23.56
1777399326201,1964426,-0.62,-0.42,0.52,-83.74,-7.26,-23.80
1777399326201,1964436,-0.75,-0.48,0.45,-84.17,-7.81,-26.00
1777399326201,1964446,-0.48,-0.46,0.47,-91.00,-1.53,-32.65
1777399326201,1964456,-0.39,-0.45,0.45,-81.67,-4.09,-27.10
1777399326202,1964466,-0.51,-0.49,0.46,-81.67,-6.23,-24.17
1777399326202,1964476,-0.48,-0.55,0.46,-86.85,-8.36,-21.42
1777399326202,1964486,-0.38,-0.63,0.38,-80.26,-13.43,-20.14
1777399326202,1964496,-0.42,-0.49,0.40,-67.26,-21.24,-24.17
1777399326205,1964506,-0.39,-0.44,0.40,-61.65,-26.06,-30.82
1777399326215,1964516,-0.33,-0.51,0.39,-61.95,-31.80,-33.81
1777399326225,1964526,-0.32,-0.49,0.38,-62.81,-35.46,-36.99
1777399326235,1964536,-0.23,-0.45,0.37,-59.51,-38.88,-35.77
1777399326245,1964546,-0.20,-0.39,0.40,-58.04,-42.97,-29.17
1777399326255,1964556,-0.22,-0.33,0.42,-58.90,-48.22,-4.21
1777399326275,1964576,-0.26,-0.37,0.47,-44.07,-45.10,-5.92
1777399326295,1964596,-0.41,-0.64,0.84,-4.94,-61.95,-15.32
1777399326315,1964616,-0.52,-0.74,1.14,7.32,-108.09,-23.44
1777399326335,1964636,-0.70,-1.27,1.04,-31.25,-121.15,6.47
1777399326345,1964646,-0.90,-2.10,0.72,-51.09,-118.59,28.14
1777399326355,1964656,-1.11,-3.67,0.15,-58.78,-128.85,33.14
1777399326365,1964666,-1.73,-4.00,-0.05,-26.06,-152.89,10.44
1777399326375,1964676,-2.66,-4.00,0.39,56.46,-194.95,-40.41
1777399326385,1964686,-3.01,-4.00,1.67,126.40,-230.71,-124.15
1777399326395,1964696,-2.29,-4.00,3.00,102.60,-240.36,-183.96
1777399326405,1964706,-1.41,-4.00,4.00,-45.59,-196.84,-142.03
1777399326415,1964716,-0.96,-4.00,4.00,-271.55,-73.97,-0.06
1777399326425,1964726,-0.94,-3.87,4.00,-529.11,119.93,157.71
1777399326435,1964736,-1.16,-2.66,4.00,-734.37,315.86,238.46
1777399326445,1964746,-1.43,-1.72,3.86,-819.15,399.35,221.92
1777399326455,1964756,-1.13,-0.51,3.40,-791.14,360.11,145.51
1777399326465,1964766,-0.41,0.29,3.05,-696.23,271.55,46.20
1777399326475,1964776,0.45,0.70,2.97,-539.73,152.83,-50.84
1777399326485,1964786,1.70,1.69,2.95,-316.71,32.17,-130.49
1777399326495,1964796,2.62,3.17,2.82,-142.33,-42.05,-174.26
1777399326505,1964806,3.14,4.00,2.23,-95.64,-72.75,-131.77
1777399326515,1964816,2.82,3.95,1.79,-105.41,-48.40,-0.06
1777399326525,1964826,1.65,3.56,1.55,-85.33,24.23,153.14
1777399326535,1964836,0.20,2.91,2.12,-49.19,98.33,238.28
1777399326545,1964846,-0.68,2.47,2.53,-1.46,125.49,213.07
1777399326555,1964856,-1.00,2.62,2.41,16.42,104.68,109.37
1777399326565,1964866,-0.88,2.43,1.94,-6.53,63.72,24.35
1777399326575,1964876,-0.80,2.17,1.41,-40.53,32.35,-4.94
1777399326585,1964886,-0.76,2.11,0.82,-79.96,20.75,-12.15
1777399326595,1964896,-0.64,1.97,0.27,-129.09,28.50,-19.23
1777399326605,1964906,-0.40,1.81,-0.15,-166.20,47.55,-23.13
1777399326625,1964926,0.08,1.18,-0.81,-122.80,61.34,-10.80
1777399326645,1964946,0.17,0.08,-1.25,26.00,8.85,11.84
1777399326665,1964966,-0.24,-0.32,-0.91,167.05,3.60,28.63
1777399326685,1964986,-0.82,-0.75,-0.19,217.10,28.81,35.46
1777399326696,1964996,-0.99,-0.88,0.11,212.16,26.31,22.28
1777399326705,1965006,-1.05,-0.93,0.32,190.86,11.23,2.81
1777399326715,1965016,-0.95,-0.99,0.31,162.05,-14.28,-14.22
1777399326726,1965026,-0.78,-1.10,0.14,135.44,-34.30,-26.49
1777399326743,1965036,-0.56,-1.23,-0.01,122.19,-37.17,-36.56
1777399326745,1965046,-0.35,-1.29,-0.06,127.38,-27.53,-42.66
1777399326755,1965056,-0.26,-1.24,-0.09,140.01,-17.88,-39.49
1777399326765,1965066,-0.25,-1.14,-0.08,146.48,-10.31,-21.85
1777399326775,1965076,-0.36,-1.07,-0.07,141.42,-3.17,2.32
1777399326791,1965086,-0.53,-1.12,-0.02,129.70,4.82,23.38
1777399326795,1965096,-0.70,-1.15,0.06,121.28,8.30,31.74
1777399326805,1965106,-0.82,-1.19,0.27,118.29,3.42,27.65
1777399326815,1965116,-0.71,-1.04,0.10,118.90,-6.84,17.15
1777399326825,1965126,-0.60,-1.02,0.17,113.22,-11.29,9.64
1777399326835,1965136,-0.51,-0.99,0.20,105.59,-16.05,4.03
1777399326845,1965146,-0.46,-0.99,0.19,93.08,-23.93,5.13
1777399326855,1965156,-0.43,-0.95,0.02,79.22,-28.32,14.95
1777399326865,1965166,-0.38,-1.13,0.01,63.11,-23.62,27.95
1777399326877,1965176,-0.48,-1.09,-0.06,58.35,-10.80,27.83
1777399326885,1965186,-0.56,-0.96,-0.09,66.16,-2.75,28.14
1777399326895,1965196,-0.55,-0.95,-0.11,73.61,6.04,34.06
1777399326905,1965206,-0.57,-0.94,-0.15,78.92,15.08,35.64
1777399326915,1965216,-0.65,-0.90,-0.05,84.53,26.67,33.02
1777399326925,1965226,-0.65,-0.90,0.05,86.36,30.64,29.60
1777399326935,1965236,-0.65,-0.87,0.12,82.21,23.99,23.38
1777399326945,1965246,-0.60,-0.83,0.13,73.00,8.85,17.40
1777399326965,1965266,-0.45,-0.86,-0.01,76.17,-25.57,21.91
1777399326985,1965286,-0.36,-0.87,-0.13,133.67,-15.08,21.73
