host_time_ms,arduino_time_ms,ax,ay,az,gx,gy,gz
1777399303773,1924996,0.01,-0.00,1.00,2.56,-4.70,-4.58
1777399303773,1925006,0.01,0.00,1.00,2.50,-4.76,-4.70
1777399303774,1925016,0.01,0.00,1.00,2.50,-4.70,-4.88
1777399303774,1925026,0.01,-0.00,1.00,2.44,-4.70,-4.94
1777399303774,1925036,0.01,-0.00,1.01,2.38,-4.76,-4.88
1777399303775,1925046,0.01,-0.00,1.00,2.38,-4.64,-4.88
1777399303775,1925056,0.01,-0.00,1.00,2.38,-4.70,-5.00
1777399303775,1925066,0.01,0.00,0.99,2.38,-4.82,-5.19
1777399303776,1925076,0.01,-0.00,1.00,2.32,-4.70,-5.13
1777399303776,1925086,0.01,-0.00,1.00,2.38,-4.76,-5.07
1777399303776,1925096,0.01,-0.00,1.00,2.32,-4.70,-5.07
1777399303777,1925106,0.02,-0.00,1.00,2.26,-4.76,-5.19
1777399303777,1925116,0.01,-0.00,1.00,2.32,-4.70,-4.94
1777399303777,1925126,0.01,-0.00,1.00,2.50,-4.82,-4.58
1777399303778,1925136,0.01,-0.00,1.00,2.38,-4.76,-4.82
1777399303778,1925146,0.01,-0.00,1.00,2.32,-4.70,-5.13
1777399303778,1925156,0.01,-0.00,1.00,2.38,-4.70,-5.07
1777399303779,1925166,0.01,-0.00,1.00,2.44,-4.64,-5.00
1777399303779,1925176,0.01,-0.00,1.00,2.44,-4.70,-4.88
1777399303779,1925186,0.01,-0.00,1.00,2.50,-4.76,-4.70
1777399303779,1925206,0.01,-0.00,1.00,2.69,-4.82,-4.46
1777399303780,1925226,0.01,-0.00,1.00,2.56,-4.76,-4.64
1777399303780,1925246,0.01,-0.00,1.00,2.50,-4.76,-4.76
1777399303780,1925266,0.01,-0.00,1.00,2.56,-4.70,-4.64
1777399303780,1925276,0.01,-0.00,1.00,2.56,-4.76,-4.58
1777399303781,1925286,0.01,-0.00,1.00,2.50,-4.76,-4.64
1777399303781,1925296,0.01,-0.00,1.00,2.50,-4.76,-4.76
1777399303781,1925306,0.01,-0.00,1.00,2.62,-4.82,-4.64
1777399303782,1925316,0.01,-0.00,1.00,2.62,-4.76,-4.46
1777399303782,1925326,0.01,-0.00,1.00,2.50,-4.70,-4.58
1777399303782,1925336,0.01,-0.00,1.00,2.50,-4.70,-4.70
1777399303782,1925346,0.01,-0.00,1.00,2.44,-4.76,-4.64
1777399303783,1925356,0.01,-0.00,1.00,2.50,-4.76,-4.64
1777399303783,1925366,0.01,-0.00,1.00,2.44,-4.76,-4.88
1777399303783,1925376,0.01,-0.00,1.00,2.38,-4.76,-5.13
1777399303783,1925386,0.01,-0.00,1.00,2.26,-4.76,-5.25
1777399303784,1925396,0.01,-0.00,1.00,2.26,-4.70,-5.37
1777399303784,1925406,0.01,-0.00,1.00,2.20,-4.70,-5.37
1777399303784,1925416,0.01,-0.00,1.00,2.26,-4.76,-5.31
1777399303784,1925426,0.01,-0.00,1.00,2.38,-4.88,-4.94
1777399303784,1925436,0.01,-0.00,1.00,2.50,-4.76,-4.52
1777399303785,1925446,0.01,-0.00,1.00,2.50,-4.76,-4.58
1777399303785,1925456,0.01,-0.00,1.00,2.56,-4.70,-4.46
1777399303785,1925466,0.01,-0.00,1.01,2.50,-4.70,-4.70
1777399303786,1925476,0.01,-0.00,1.00,2.44,-4.70,-4.88
1777399303786,1925486,0.02,-0.00,1.00,2.32,-4.70,-5.07
1777399303786,1925496,0.01,-0.00,1.00,2.32,-4.76,-5.31
1777399303786,1925506,0.01,-0.00,1.00,2.44,-4.70,-4.88
1777399303787,1925516,0.01,-0.00,1.00,2.56,-4.76,-4.46
1777399303787,1925526,0.01,-0.00,1.00,2.56,-4.76,-4.70
1777399303787,1925536,0.01,-0.00,1.00,2.44,-4.76,-4.76
1777399303787,1925556,0.01,-0.00,1.00,2.44,-4.76,-4.64
1777399303787,1925576,0.01,-0.00,1.00,2.50,-4.76,-4.70
1777399303788,1925596,0.01,-0.00,1.00,2.38,-4.70,-5.00
1777399303788,1925616,0.01,-0.00,1.00,2.38,-4.64,-5.07
1777399303788,1925626,0.01,-0.00,1.00,2.38,-4.70,-5.00
1777399303788,1925636,0.01,-0.00,1.00,2.44,-4.70,-4.94
1777399303788,1925646,0.01,-0.00,1.00,2.44,-4.76,-4.70
1777399303788,1925656,0.02,0.00,1.00,2.38,-4.76,-5.00
1777399303789,1925666,0.01,-0.00,1.00,2.26,-4.76,-5.19
1777399303789,1925676,0.01,-0.00,1.00,2.26,-4.76,-5.31
1777399303789,1925686,0.01,-0.00,1.00,2.20,-4.76,-5.37
1777399303789,1925696,0.01,-0.00,1.00,2.26,-4.70,-5.13
1777399303789,1925706,0.01,-0.00,1.00,2.38,-4.76,-4.88
1777399303790,1925716,0.01,-0.00,1.00,2.44,-4.76,-4.94
1777399303790,1925726,0.01,-0.00,1.00,2.50,-4.76,-4.88
1777399303790,1925736,0.01,-0.00,1.00,2.44,-4.70,-4.94
1777399303790,1925746,0.01,-0.00,1.00,2.44,-4.70,-5.00
1777399303790,1925756,0.01,-0.00,1.00,2.38,-4.64,-5.07
1777399303791,1925766,0.01,-0.00,1.00,2.32,-4.76,-5.07
1777399303791,1925776,0.01,-0.00,1.00,2.32,-4.70,-5.13
1777399303791,1925786,0.01,-0.00,1.00,2.26,-4.76,-5.25
1777399303791,1925796,0.01,0.00,1.00,2.26,-4.70,-5.37
1777399303791,1925806,0.01,-0.00,1.00,2.26,-4.70,-5.31
1777399303791,1925816,0.01,-0.00,1.00,2.32,-4.64,-5.31
1777399303792,1925826,0.01,-0.00,1.00,2.32,-4.64,-5.31
1777399303792,1925836,0.01,-0.00,1.00,2.32,-4.70,-5.25
1777399303792,1925846,0.01,-0.00,1.00,2.38,-4.76,-5.07
1777399303792,1925856,0.01,0.00,1.00,2.32,-4.70,-5.13
1777399303792,1925866,0.01,0.00,1.00,2.32,-4.70,-5.25
1777399303792,1925876,0.01,-0.00,1.00,2.32,-4.76,-5.25
1777399303793,1925896,0.01,-0.00,1.00,2.56,-4.76,-4.58
1777399303793,1925916,0.01,-0.00,1.00,2.50,-4.76,-4.58
1777399303793,1925936,0.01,-0.00,1.00,2.44,-4.70,-5.07
1777399303793,1925956,0.01,-0.00,1.00,2.38,-4.76,-4.94
1777399303794,1925966,0.01,-0.00,1.00,2.44,-4.82,-4.88
1777399303794,1925976,0.01,-0.00,1.00,2.50,-4.76,-4.70
1777399303794,1925986,0.01,-0.00,1.00,2.56,-4.70,-4.64
1777399303794,1925996,0.01,-0.00,1.00,2.62,-4.76,-4.64
1777399303794,1926006,0.01,-0.00,1.00,2.50,-4.76,-4.82
1777399303794,1926016,0.01,-0.00,1.00,2.38,-4.82,-5.07
1777399303795,1926026,0.01,-0.00,1.00,2.44,-4.76,-4.94
1777399303795,1926036,0.01,-0.00,1.00,2.44,-4.76,-4.76
1777399303795,1926046,0.01,-0.00,1.00,2.50,-4.76,-4.88
1777399303795,1926056,0.01,-0.00,1.00,2.38,-4.76,-5.00
1777399303795,1926066,0.01,-0.00,1.00,2.32,-4.76,-5.00
1777399303795,1926076,0.01,-0.00,1.00,2.32,-4.82,-5.00
1777399303796,1926086,0.01,-0.00,1.00,2.44,-4.76,-4.82
1777399303796,1926096,0.01,-0.00,1.00,2.56,-4.70,-4.39
1777399303796,1926106,0.01,-0.00,1.00,2.44,-4.70,-4.76
1777399303796,1926116,0.01,-0.00,1.00,2.32,-4.76,-5.25
1777399303796,1926126,0.01,-0.00,1.00,2.38,-4.76,-5.00
1777399303796,1926136,0.01,-0.00,1.00,2.44,-4.82,-4.76
1777399303797,1926146,0.01,-0.00,1.00,2.32,-4.76,-5.00
1777399303797,1926156,0.01,0.00,1.00,2.32,-4.76,-5.25
1777399303797,1926166,0.01,-0.00,1.00,2.44,-4.76,-5.13
1777399303797,1926176,0.01,-0.00,1.00,2.44,-4.76,-4.76
1777399303797,1926186,0.01,-0.00,1.00,2.32,-4.76,-4.94
1777399303797,1926196,0.01,-0.00,1.00,2.26,-4.76,-5.19
1777399303798,1926206,0.01,-0.00,1.00,2.44,-4.76,-4.88
1777399303798,1926216,0.01,-0.00,1.00,2.62,-4.82,-4.46
1777399303798,1926226,0.01,-0.00,1.00,2.62,-4.82,-4.52
1777399303798,1926246,0.01,-0.00,1.00,2.26,-4.76,-5.25
1777399303798,1926266,0.01,-0.00,1.00,2.32,-4.70,-5.25
1777399303798,1926286,0.01,-0.00,1.00,2.38,-4.70,-5.19
1777399303799,1926306,0.01,-0.00,1.00,2.69,-4.70,-4.58
1777399303799,1926316,0.01,-0.00,1.00,2.62,-4.70,-4.58
1777399303799,1926326,0.01,-0.00,1.00,2.62,-4.70,-4.70
1777399303799,1926336,0.01,-0.00,1.00,2.44,-4.58,-4.94
1777399303799,1926346,0.01,-0.00,1.00,2.38,-4.64,-5.31
1777399303799,1926356,0.01,0.00,1.00,2.50,-4.70,-5.13
1777399303799,1926366,0.01,0.00,1.00,2.50,-4.64,-4.94
1777399303800,1926376,0.01,0.00,1.00,2.56,-4.70,-4.82
1777399303800,1926386,0.01,-0.00,1.00,2.69,-4.70,-4.52
1777399303800,1926396,0.01,-0.00,1.00,2.56,-4.70,-4.64
1777399303800,1926406,0.01,0.00,1.00,2.56,-4.76,-4.76
1777399303800,1926416,0.01,0.00,1.00,2.44,-4.64,-5.00
1777399303801,1926426,0.01,-0.00,1.00,2.32,-4.64,-5.25
1777399303801,1926436,0.01,-0.00,1.00,2.38,-4.64,-5.25
1777399303801,1926446,0.02,-0.00,1.00,2.38,-4.70,-5.25
1777399303801,1926456,0.01,-0.00,1.00,2.38,-4.76,-5.13
1777399303801,1926466,0.01,-0.00,1.00,2.50,-4.76,-4.94
1777399303801,1926476,0.01,-0.00,1.00,2.56,-4.76,-4.76
1777399303801,1926486,0.01,0.00,1.00,2.56,-4.76,-4.52
1777399303802,1926496,0.01,-0.00,1.00,2.50,-4.76,-4.64
1777399303802,1926506,0.01,-0.00,1.01,2.50,-4.76,-4.76
1777399303802,1926516,0.01,-0.00,1.00,2.44,-4.76,-4.76
1777399303802,1926526,0.01,-0.00,1.00,2.50,-4.76,-4.70
1777399303802,1926536,0.01,-0.00,1.00,2.56,-4.82,-4.70
1777399303802,1926546,0.01,0.00,1.00,2.56,-4.82,-4.70
1777399303803,1926556,0.01,-0.00,1.00,2.44,-4.76,-4.82
1777399303803,1926566,0.01,-0.00,1.00,2.38,-4.70,-4.94
1777399303803,1926586,0.01,0.00,1.00,2.38,-4.70,-5.00
1777399303803,1926606,0.01,-0.00,1.00,2.50,-4.76,-4.70
1777399303803,1926626,0.01,-0.00,1.00,2.44,-4.76,-5.00
1777399303803,1926646,0.01,-0.00,1.00,2.38,-4.76,-5.00
1777399303803,1926656,0.01,-0.00,1.00,2.56,-4.76,-4.58
1777399303804,1926666,0.01,-0.00,1.00,2.50,-4.70,-4.70
1777399303804,1926676,0.01,-0.00,1.00,2.44,-4.76,-4.82
1777399303804,1926686,0.01,-0.00,1.00,2.38,-4.82,-4.94
1777399303804,1926696,0.01,-0.00,1.00,2.32,-4.76,-5.00
1777399303804,1926706,0.01,-0.00,1.00,2.32,-4.70,-4.94
1777399303804,1926716,0.01,-0.00,1.00,2.38,-4.82,-4.88
1777399303804,1926726,0.01,-0.00,1.00,2.50,-4.70,-4.70
1777399303805,1926736,0.01,-0.00,1.00,2.62,-4.76,-4.33
1777399303805,1926746,0.01,0.00,1.00,2.50,-4.82,-4.64
1777399303805,1926756,0.01,-0.00,1.00,2.26,-4.82,-5.13
1777399303805,1926766,0.01,-0.00,1.00,2.32,-4.82,-4.94
1777399303805,1926776,0.01,-0.00,1.00,2.44,-4.76,-4.70
1777399303805,1926786,0.01,-0.00,1.00,2.44,-5.00,-4.76
1777399303805,1926796,0.02,-0.08,0.99,2.08,-5.37,-5.19
1777399303806,1926806,-0.02,-0.02,0.98,1.83,-5.49,-12.27
1777399303806,1926816,0.03,0.05,1.06,1.77,-5.07,-17.21
1777399303806,1926826,0.04,-0.10,1.04,2.20,-4.76,-14.10
1777399303806,1926836,0.02,-0.00,0.98,2.08,-5.74,-20.32
1777399303806,1926846,0.01,0.16,1.01,2.38,-4.88,-17.70
1777399303806,1926856,0.02,-0.01,1.00,2.81,-3.85,-5.07
1777399303807,1926866,0.02,-0.01,1.00,2.62,-4.64,-3.78
1777399303807,1926876,0.01,0.01,0.99,2.69,-4.64,-4.39
1777399303807,1926886,0.01,-0.00,0.98,2.50,-4.76,-4.70
1777399303807,1926896,0.01,0.00,1.01,2.26,-4.64,-5.00
1777399303807,1926906,0.01,0.02,1.00,2.01,-4.88,-4.82
1777399303807,1926916,-0.01,0.06,0.98,2.26,-4.88,1.40
1777399303807,1926936,0.00,0.00,1.01,1.83,-5.00,5.13
1777399303807,1926956,0.02,-0.03,1.03,2.08,-5.07,3.23
1777399303808,1926976,0.03,-0.04,0.98,2.26,-5.00,-1.22
1777399303808,1926996,0.01,-0.00,1.00,2.62,-4.58,-4.52
1777399303808,1927006,0.01,-0.00,1.00,2.38,-4.82,-4.76
1777399303808,1927016,0.01,0.00,1.00,2.32,-4.70,-4.82
1777399303808,1927026,0.02,-0.00,1.00,2.20,-4.70,-5.00
1777399303808,1927036,0.01,0.00,1.01,2.20,-4.52,-5.07
1777399303809,1927046,0.01,-0.00,1.00,2.32,-4.52,-4.88
1777399303809,1927056,0.01,-0.01,1.00,2.14,-4.70,-4.94
1777399303809,1927066,0.01,-0.00,1.01,2.26,-4.58,-4.82
1777399303809,1927076,0.01,0.00,1.00,2.38,-4.64,-4.82
1777399303809,1927086,0.01,-0.00,0.99,2.32,-4.64,-4.88
1777399303809,1927096,0.01,0.00,1.00,2.32,-4.70,-4.70
1777399303809,1927106,0.01,-0.00,1.00,2.38,-4.70,-4.52
1777399303810,1927116,0.01,-0.01,1.00,2.38,-4.70,-4.46
1777399303810,1927126,0.01,-0.01,1.01,2.50,-4.64,-4.46
1777399303810,1927136,0.00,0.01,0.99,2.50,-4.64,-4.39
1777399303810,1927146,0.01,0.01,0.99,2.26,-4.94,-4.52
1777399303810,1927156,0.00,-0.00,1.02,2.50,-4.39,-4.39
1777399303810,1927166,0.01,-0.01,1.01,2.44,-4.82,-4.27
1777399303810,1927176,0.01,-0.00,1.00,2.56,-4.76,-4.33
1777399303810,1927186,0.01,-0.00,1.00,2.50,-4.70,-4.33
1777399303811,1927196,0.02,-0.00,1.00,2.32,-4.82,-4.58
1777399303811,1927206,0.02,0.00,1.01,2.14,-4.82,-5.00
1777399303811,1927216,0.01,-0.01,1.00,2.08,-4.94,-4.94
1777399303811,1927226,0.02,-0.18,1.00,2.44,-4.33,-7.26
1777399303811,1927236,-0.01,0.03,1.01,2.56,-4.09,-21.73
1777399303811,1927246,0.02,0.06,1.00,2.20,-4.64,-21.91
1777399303811,1927256,0.03,0.05,1.00,2.44,-4.33,-13.67
1777399303812,1927276,0.03,-0.07,1.00,2.75,-4.39,-17.21
1777399303812,1927296,0.01,0.09,1.00,2.44,-4.82,-14.89
1777399303812,1927316,0.01,-0.00,1.01,2.26,-4.76,-5.00
1777399303812,1927336,0.02,-0.00,1.00,2.44,-4.70,-4.88
1777399303812,1927346,0.01,-0.00,1.00,2.44,-4.76,-4.76
1777399303812,1927356,0.01,-0.00,1.00,2.50,-4.82,-4.58
1777399303812,1927366,0.01,-0.00,1.01,2.50,-4.76,-4.52
1777399303812,1927376,0.01,-0.00,1.00,2.62,-4.76,-4.39
1777399303813,1927386,0.01,-0.00,1.00,2.56,-4.70,-4.52
1777399303813,1927396,0.01,-0.00,1.00,2.50,-4.70,-4.76
1777399303813,1927406,0.01,-0.00,1.00,2.32,-4.76,-4.88
1777399303813,1927416,0.01,-0.00,1.00,2.38,-4.76,-5.07
1777399303813,1927426,0.01,0.00,1.00,2.26,-4.64,-5.19
1777399303813,1927436,0.01,-0.00,1.00,2.26,-4.76,-5.00
1777399303813,1927446,0.01,-0.00,1.00,2.26,-4.70,-5.00
1777399303814,1927456,0.01,-0.00,1.00,2.32,-4.64,-5.00
1777399303814,1927466,0.01,-0.00,1.00,2.38,-4.64,-4.88
1777399303814,1927476,0.01,-0.00,1.00,2.32,-4.70,-4.76
1777399303814,1927486,0.01,-0.00,1.00,2.44,-4.64,-4.64
1777399303814,1927496,0.01,-0.00,1.00,2.56,-4.76,-4.27
1777399303814,1927506,0.01,-0.00,1.00,2.50,-4.76,-4.70
1777399303814,1927516,0.01,-0.00,1.00,2.44,-4.70,-5.00
1777399303815,1927526,0.01,-0.00,1.00,2.44,-4.64,-4.82
1777399303815,1927536,0.02,-0.00,1.00,2.50,-4.76,-4.70
1777399303815,1927546,0.01,-0.00,1.00,2.50,-4.70,-4.64
1777399303815,1927556,0.01,-0.00,1.00,2.56,-4.70,-4.52
1777399303815,1927566,0.01,-0.00,1.00,2.56,-4.70,-4.64
1777399303815,1927576,0.01,-0.00,1.00,2.44,-4.76,-4.70
1777399303815,1927586,0.01,-0.00,1.00,2.38,-4.82,-4.88
1777399303816,1927596,0.02,0.00,1.00,2.20,-4.70,-5.07
1777399303816,1927606,0.01,-0.00,1.00,2.44,-4.76,-4.39
1777399303816,1927626,0.01,-0.00,1.00,2.62,-4.70,-4.39
1777399303816,1927646,0.01,-0.00,1.00,2.62,-4.76,-4.46
1777399303816,1927666,0.01,-0.00,1.00,2.32,-4.70,-4.64
1777399303816,1927686,0.01,-0.00,1.00,2.62,-4.76,-4.33
1777399303817,1927696,0.01,-0.00,1.00,2.50,-4.70,-4.76
1777399303817,1927706,0.01,-0.00,1.00,2.26,-4.58,-5.13
1777399303817,1927716,0.01,-0.00,1.00,2.44,-4.64,-4.82
1777399303817,1927726,0.01,-0.00,1.00,2.56,-4.76,-4.33
1777399303817,1927736,0.01,-0.00,1.00,2.50,-4.76,-4.70
1777399303817,1927746,0.01,-0.00,1.00,2.38,-4.82,-4.94
1777399303817,1927756,0.01,-0.00,1.00,2.26,-4.70,-5.00
1777399303818,1927766,0.01,-0.00,1.00,2.26,-4.70,-5.19
1777399303818,1927776,0.01,-0.00,1.00,2.38,-4.70,-4.88
1777399303818,1927786,0.01,-0.00,1.00,2.50,-4.70,-4.64
1777399303818,1927796,0.01,-0.00,1.00,2.56,-4.76,-4.52
1777399303818,1927806,0.01,-0.00,1.00,2.50,-4.82,-4.39
1777399303818,1927816,0.01,-0.00,1.00,2.50,-4.70,-4.64
1777399303818,1927826,0.01,-0.00,1.00,2.32,-4.70,-4.88
1777399303818,1927836,0.01,-0.00,1.00,2.38,-4.70,-4.70
1777399303819,1927846,0.01,-0.00,1.00,2.50,-4.82,-4.39
1777399303819,1927856,0.01,-0.00,1.00,2.44,-4.76,-4.58
1777399303819,1927866,0.01,-0.00,1.00,2.44,-4.70,-4.76
1777399303819,1927876,0.01,-0.00,1.00,2.44,-4.70,-4.76
1777399303819,1927886,0.01,-0.00,1.00,2.44,-4.76,-4.58
1777399303819,1927896,0.01,-0.00,1.00,2.44,-4.70,-4.82
1777399303819,1927906,0.01,-0.00,1.00,2.32,-4.64,-5.19
1777399303820,1927916,0.01,-0.00,1.00,2.38,-4.70,-4.94
1777399303820,1927926,0.01,-0.00,1.00,2.44,-4.70,-4.76
1777399303820,1927936,0.01,-0.00,1.00,2.44,-4.70,-4.64
1777399303820,1927946,0.01,-0.00,1.00,2.56,-4.70,-4.52
1777399303820,1927966,0.01,-0.00,1.00,2.44,-4.64,-4.70
1777399303820,1927986,0.01,-0.00,1.00,2.44,-4.70,-4.64
1777399303820,1928006,0.01,-0.00,1.00,2.44,-4.70,-4.94
1777399303820,1928026,0.01,-0.00,1.00,2.38,-4.76,-4.94
1777399303821,1928036,0.01,-0.00,1.00,2.50,-4.70,-4.64
1777399303821,1928046,0.01,-0.00,1.00,2.50,-4.70,-4.64
1777399303821,1928056,0.01,-0.00,1.00,2.56,-4.76,-4.64
1777399303821,1928066,0.01,-0.00,1.00,2.50,-4.76,-4.70
1777399303821,1928076,0.01,-0.00,1.00,2.38,-4.64,-4.70
1777399303821,1928086,0.01,-0.00,1.00,2.44,-4.70,-4.82
1777399303821,1928096,0.01,-0.00,1.00,2.32,-4.64,-4.94
1777399303821,1928106,0.01,-0.00,1.00,2.38,-4.64,-4.88
1777399303822,1928116,0.01,-0.00,1.00,2.44,-4.76,-4.76
1777399303822,1928126,0.01,-0.00,1.00,2.50,-4.70,-4.70
1777399303822,1928136,0.01,-0.00,1.00,2.44,-4.76,-4.46
1777399303822,1928146,0.01,-0.00,1.00,2.44,-4.64,-4.64
1777399303822,1928156,0.01,-0.00,1.00,2.44,-4.64,-4.76
1777399303822,1928166,0.01,-0.00,1.00,2.50,-4.76,-4.64
1777399303822,1928176,0.01,-0.00,1.00,2.56,-4.76,-4.39
1777399303823,1928186,0.01,-0.00,1.00,2.56,-4.82,-4.46
1777399303823,1928196,0.01,-0.00,1.00,2.50,-4.82,-4.46
1777399303823,1928206,0.01,-0.00,1.00,2.44,-4.70,-4.64
1777399303823,1928216,0.01,-0.00,1.00,2.44,-4.70,-4.88
1777399303823,1928226,0.01,-0.00,1.00,2.32,-4.76,-4.94
1777399303823,1928236,0.01,-0.00,1.00,2.32,-4.76,-5.00
1777399303823,1928246,0.01,-0.00,1.00,2.32,-4.70,-5.00
1777399303823,1928256,0.01,-0.00,1.00,2.32,-4.64,-5.13
1777399303824,1928266,0.01,-0.00,1.00,2.38,-4.70,-5.13
1777399303824,1928276,0.01,-0.00,1.00,2.44,-4.76,-4.88
1777399303824,1928286,0.01,-0.00,1.00,2.44,-4.76,-4.88
1777399303824,1928296,0.01,-0.00,1.00,2.38,-4.70,-5.00
1777399303824,1928316,0.01,-0.00,1.00,2.38,-4.76,-4.94
1777399303824,1928336,0.01,-0.00,1.00,2.38,-4.70,-4.94
1777399303824,1928356,0.01,-0.00,1.00,2.38,-4.70,-5.07
1777399303824,1928376,0.01,-0.00,1.00,2.38,-4.76,-4.76
1777399303825,1928386,0.01,-0.00,1.00,2.56,-4.76,-4.27
1777399303825,1928396,0.01,-0.00,1.00,2.44,-4.76,-4.64
1777399303825,1928406,0.01,-0.00,1.00,2.32,-4.76,-4.88
1777399303825,1928416,0.01,-0.00,1.00,2.26,-4.64,-5.00
1777399303825,1928426,0.01,-0.00,1.00,2.32,-4.64,-5.13
1777399303825,1928436,0.01,-0.00,1.00,2.44,-4.76,-5.00
1777399303825,1928446,0.01,-0.00,1.00,2.44,-4.70,-4.88
1777399303826,1928456,0.01,-0.00,1.00,2.44,-4.76,-4.70
1777399303826,1928466,0.01,-0.00,1.00,2.62,-4.70,-4.46
1777399303826,1928476,0.01,-0.00,1.00,2.62,-4.76,-4.33
1777399303826,1928486,0.01,-0.00,1.00,2.56,-4.76,-4.52
1777399303826,1928496,0.01,-0.00,1.00,2.50,-4.70,-4.64
1777399303826,1928506,0.01,-0.00,1.00,2.44,-4.70,-4.82
1777399303826,1928516,0.01,-0.00,1.00,2.50,-4.70,-4.64
1777399303826,1928526,0.01,-0.00,1.00,2.62,-4.76,-4.39
1777399303827,1928536,0.01,-0.00,1.00,2.56,-4.76,-4.52
1777399303827,1928546,0.01,-0.00,1.00,2.44,-4.76,-4.70
1777399303827,1928556,0.01,-0.00,1.00,2.38,-4.70,-4.88
1777399303827,1928566,0.01,-0.00,1.00,2.26,-4.70,-5.13
1777399303827,1928576,0.01,-0.00,1.00,2.26,-4.76,-5.07
1777399303827,1928586,0.01,-0.00,1.00,2.26,-4.76,-5.13
1777399303827,1928596,0.01,-0.00,1.00,2.32,-4.70,-5.07
1777399303827,1928606,0.01,-0.00,1.00,2.38,-4.70,-4.88
1777399303828,1928616,0.01,-0.00,1.00,2.50,-4.70,-4.58
1777399303828,1928626,0.01,-0.00,1.00,2.50,-4.64,-4.46
1777399303828,1928636,0.01,-0.00,1.00,2.44,-4.70,-4.52
1777399303828,1928646,0.01,-0.00,1.00,2.38,-4.70,-4.64
1777399303828,1928666,0.01,-0.00,1.00,2.44,-4.70,-4.58
1777399303828,1928686,0.01,-0.00,1.00,2.50,-4.76,-4.52
1777399303828,1928706,0.01,-0.00,1.00,2.50,-4.70,-4.58
1777399303828,1928716,0.01,-0.00,1.00,2.38,-4.70,-4.82
1777399303829,1928726,0.01,-0.00,1.00,2.38,-4.64,-4.76
1777399303829,1928736,0.01,-0.00,1.00,2.38,-4.70,-4.76
1777399303829,1928746,0.01,-0.00,1.00,2.32,-4.70,-4.82
1777399303829,1928756,0.01,-0.00,1.00,2.32,-4.70,-4.94
1777399303829,1928766,0.01,-0.00,1.00,2.38,-4.64,-4.88
1777399303829,1928776,0.01,-0.00,1.00,2.38,-4.70,-4.70
1777399303829,1928786,0.01,-0.00,1.00,2.38,-4.70,-4.70
1777399303829,1928796,0.01,-0.00,1.00,2.56,-4.70,-4.70
1777399303829,1928806,0.01,-0.00,1.00,2.50,-4.76,-4.64
1777399303830,1928816,0.02,-0.00,1.00,2.50,-4.76,-4.76
1777399303830,1928826,0.01,-0.00,1.00,2.56,-4.64,-4.58
1777399303830,1928836,0.01,-0.00,1.00,2.62,-4.76,-4.39
1777399303830,1928846,0.01,-0.00,1.00,2.56,-4.64,-4.52
1777399303830,1928856,0.01,-0.00,1.00,2.38,-4.76,-4.70
1777399303830,1928866,0.01,-0.00,1.00,2.38,-4.70,-4.88
1777399303830,1928876,0.01,-0.00,1.00,2.26,-4.70,-5.25
1777399303830,1928886,0.01,-0.00,1.00,2.26,-4.64,-5.19
1777399303831,1928896,0.01,-0.00,1.00,2.32,-4.76,-5.07
1777399303831,1928906,0.01,-0.00,1.00,2.38,-4.76,-4.88
1777399303831,1928916,0.01,-0.00,1.00,2.50,-4.76,-4.46
1777399303831,1928926,0.01,-0.00,1.00,2.62,-4.76,-4.46
1777399303831,1928936,0.01,-0.00,1.00,2.56,-4.76,-4.39
1777399303831,1928946,0.01,-0.00,1.00,2.44,-4.70,-4.64
1777399303831,1928956,0.01,-0.00,1.00,2.38,-4.70,-5.07
1777399303831,1928966,0.01,-0.00,1.00,2.44,-4.70,-4.94
1777399303831,1928976,0.01,-0.00,1.00,2.50,-4.76,-4.64
1777399303832,1928986,0.01,-0.00,1.00,2.44,-4.70,-5.19
1777399303832,1929006,0.01,-0.00,1.00,2.26,-4.70,-5.13
1777399303832,1929026,0.01,-0.00,1.00,2.26,-4.76,-5.07
1777399303832,1929046,0.01,-0.00,1.00,2.50,-4.76,-4.58
1777399303832,1929066,0.01,-0.00,1.00,2.44,-4.70,-4.76
1777399303832,1929076,0.01,-0.00,1.00,2.44,-4.76,-4.82
1777399303832,1929086,0.01,-0.00,1.00,2.38,-4.70,-5.07
1777399303832,1929096,0.01,-0.00,1.00,2.44,-4.70,-4.88
1777399303833,1929106,0.01,-0.00,1.00,2.44,-4.70,-4.76
1777399303833,1929116,0.01,-0.00,1.00,2.38,-4.70,-4.70
1777399303833,1929126,0.01,-0.00,1.00,2.50,-4.76,-4.64
1777399303833,1929136,0.01,-0.00,1.00,2.50,-4.76,-4.52
1777399303833,1929146,0.01,-0.00,1.00,2.62,-4.82,-4.46
1777399303833,1929156,0.01,-0.00,1.00,2.50,-4.64,-4.76
1777399303833,1929166,0.01,-0.00,1.00,2.38,-4.70,-5.00
1777399303833,1929176,0.01,-0.00,1.00,2.38,-4.70,-5.00
1777399303833,1929186,0.01,-0.00,1.00,2.44,-4.76,-4.88
1777399303834,1929196,0.01,-0.00,1.00,2.50,-4.76,-4.70
1777399303834,1929206,0.01,-0.00,1.00,2.50,-4.76,-4.52
1777399303834,1929216,0.01,-0.00,1.00,2.44,-4.82,-4.46
1777399303834,1929226,0.01,-0.00,1.00,2.50,-4.70,-4.52
1777399303834,1929236,0.01,-0.00,1.00,2.50,-4.70,-4.33
1777399303834,1929246,0.01,-0.00,1.00,2.56,-4.76,-4.39
1777399303834,1929256,0.01,-0.00,1.00,2.44,-4.76,-4.52
1777399303834,1929266,0.01,-0.00,1.00,2.44,-4.76,-4.64
1777399303835,1929276,0.01,-0.00,1.00,2.44,-4.82,-4.70
1777399303835,1929286,0.01,-0.00,1.00,2.44,-4.82,-4.76
1777399303835,1929296,0.01,-0.00,1.00,2.50,-4.76,-4.76
1777399303835,1929306,0.01,-0.00,1.00,2.44,-4.70,-4.76
1777399303835,1929316,0.01,-0.00,1.00,2.32,-4.58,-4.88
1777399303835,1929326,0.01,-0.00,1.00,2.26,-4.70,-5.00
1777399303835,1929336,0.01,-0.00,1.00,2.44,-4.64,-4.52
1777399303835,1929356,0.01,-0.00,1.00,2.38,-4.76,-4.88
1777399303836,1929376,0.01,-0.00,1.00,2.32,-4.70,-5.07
1777399303836,1929396,0.01,-0.00,1.00,2.26,-4.70,-5.13
1777399303836,1929406,0.01,-0.00,1.00,2.32,-4.64,-5.07
1777399303836,1929416,0.01,-0.00,1.00,2.32,-4.76,-5.07
1777399303836,1929426,0.02,-0.00,1.00,2.38,-4.70,-5.13
1777399303836,1929436,0.01,-0.00,1.00,2.38,-4.70,-5.13
1777399303836,1929446,0.01,-0.00,1.00,2.32,-4.64,-5.07
1777399303836,1929456,0.01,-0.00,1.00,2.26,-4.64,-5.00
1777399303837,1929466,0.01,-0.00,1.00,2.38,-4.70,-5.00
1777399303837,1929476,0.01,-0.00,1.00,2.38,-4.70,-5.00
1777399303837,1929486,0.01,-0.00,1.00,2.38,-4.64,-5.00
1777399303837,1929496,0.01,-0.00,1.00,2.32,-4.70,-5.07
1777399303837,1929506,0.01,-0.00,1.00,2.50,-4.82,-4.70
1777399303837,1929516,0.01,-0.00,1.00,2.62,-4.76,-4.33
1777399303837,1929526,0.01,-0.00,1.00,2.44,-4.76,-4.64
1777399303837,1929536,0.01,-0.00,1.00,2.38,-4.70,-4.88
1777399303837,1929546,0.01,-0.00,1.00,2.44,-4.76,-4.70
1777399303838,1929556,0.01,-0.00,1.00,2.62,-4.76,-4.46
1777399303838,1929566,0.01,-0.00,1.00,2.44,-4.70,-4.70
1777399303838,1929576,0.01,-0.00,1.00,2.32,-4.76,-5.07
1777399303838,1929586,0.01,-0.00,1.00,2.44,-4.76,-4.76
1777399303838,1929596,0.01,-0.00,1.00,2.56,-4.76,-4.39
1777399303838,1929606,0.01,-0.00,1.00,2.38,-4.76,-4.82
1777399303838,1929616,0.01,-0.00,1.00,2.26,-4.70,-5.13
1777399303838,1929626,0.01,-0.00,1.00,2.38,-4.70,-5.00
1777399303839,1929636,0.01,-0.00,1.00,2.44,-4.70,-4.70
1777399303839,1929646,0.01,-0.00,1.00,2.38,-4.64,-4.76
1777399303839,1929656,0.01,-0.00,1.00,2.44,-4.70,-4.76
1777399303839,1929666,0.01,-0.00,1.00,2.56,-4.76,-4.58
1777399303839,1929676,0.01,-0.00,1.00,2.62,-4.70,-4.33
1777399303839,1929696,0.01,-0.00,1.00,2.32,-4.76,-4.76
1777399303839,1929716,0.01,-0.00,1.00,2.38,-4.76,-4.88
1777399303839,1929736,0.01,-0.00,1.00,2.32,-4.76,-4.88
1777399303839,1929756,0.01,-0.00,1.00,2.50,-4.76,-4.70
1777399303840,1929766,0.01,-0.00,1.00,2.32,-4.76,-4.88
1777399303840,1929776,0.01,-0.00,1.00,2.32,-4.76,-5.00
1777399303840,1929786,0.01,-0.00,1.00,2.26,-4.70,-5.00
1777399303840,1929796,0.01,-0.00,1.00,2.32,-4.70,-4.70
1777399303840,1929806,0.01,-0.00,1.00,2.56,-4.70,-4.33
1777399303840,1929816,0.01,-0.00,1.00,2.50,-4.70,-4.58
1777399303840,1929826,0.01,-0.00,1.00,2.50,-4.70,-4.82
1777399303840,1929836,0.01,-0.00,1.00,2.38,-4.70,-4.76
1777399303841,1929846,0.01,-0.00,1.00,2.38,-4.64,-4.82
1777399303841,1929856,0.01,-0.00,1.00,2.44,-4.76,-4.64
1777399303841,1929866,0.01,-0.00,1.00,2.62,-4.76,-4.39
1777399303841,1929876,0.01,-0.00,1.00,2.62,-4.76,-4.46
1777399303841,1929886,0.01,-0.00,1.00,2.62,-4.76,-4.46
1777399303841,1929896,0.01,-0.00,1.00,2.62,-4.70,-4.52
1777399303841,1929906,0.01,-0.00,1.00,2.56,-4.70,-4.52
1777399303841,1929916,0.01,-0.00,1.00,2.44,-4.76,-4.64
1777399303841,1929926,0.01,-0.00,1.00,2.44,-4.70,-4.70
1777399303842,1929936,0.01,-0.00,1.00,2.50,-4.70,-4.58
1777399303842,1929946,0.01,-0.00,1.00,2.50,-4.64,-4.46
1777399303842,1929956,0.01,-0.00,1.00,2.44,-4.64,-4.76
1777399303842,1929966,0.02,-0.00,1.00,2.32,-4.76,-5.19
1777399303842,1929976,0.01,-0.00,1.00,2.38,-4.70,-5.00
1777399303842,1929986,0.01,-0.00,1.00,2.32,-4.70,-4.94
1777399303842,1929996,0.01,-0.00,1.00,2.38,-4.76,-5.00
1777399303842,1930006,0.01,-0.00,1.00,2.38,-4.76,-4.82
1777399303842,1930016,0.01,-0.00,1.00,2.38,-4.76,-4.76
1777399303843,1930026,0.01,-0.00,1.00,2.44,-4.76,-4.52
1777399303843,1930046,0.01,-0.00,1.00,2.50,-4.76,-4.58
1777399303843,1930066,0.01,-0.00,1.00,2.50,-4.70,-4.70
1777399303843,1930086,0.01,-0.00,1.00,2.62,-4.70,-4.52
1777399303843,1930106,0.01,-0.00,1.00,2.38,-4.70,-4.82
1777399303843,1930116,0.01,-0.00,1.00,2.26,-4.70,-5.13
1777399303843,1930126,0.01,-0.00,1.00,2.44,-4.76,-4.76
1777399303843,1930136,0.01,-0.00,1.00,2.62,-4.76,-4.46
1777399303843,1930146,0.01,-0.00,1.00,2.44,-4.82,-4.76
1777399303844,1930156,0.01,-0.00,1.00,2.26,-4.76,-5.13
1777399303844,1930166,0.01,-0.00,1.00,2.32,-4.70,-4.82
1777399303844,1930176,0.01,-0.00,1.00,2.56,-4.70,-4.39
1777399303844,1930186,0.01,-0.00,1.00,2.56,-4.70,-4.64
1777399303844,1930196,0.01,-0.00,1.00,2.38,-4.70,-5.07
1777399303844,1930206,0.01,-0.00,1.00,2.32,-4.70,-5.13
1777399303844,1930216,0.01,-0.00,1.00,2.20,-4.70,-5.19
1777399303844,1930226,0.01,-0.00,1.00,2.38,-4.70,-5.00
1777399303844,1930236,0.01,-0.00,1.00,2.44,-4.70,-4.82
1777399303845,1930246,0.01,-0.00,1.00,2.38,-4.70,-5.00
1777399303845,1930256,0.01,-0.00,1.00,2.38,-4.64,-5.07
1777399303845,1930266,0.01,-0.00,1.00,2.50,-4.70,-4.82
1777399303845,1930276,0.01,-0.00,0.99,2.62,-4.70,-4.33
1777399303845,1930286,0.01,-0.00,1.03,2.56,-4.70,-4.46
1777399303845,1930296,0.01,0.00,1.00,2.50,-4.76,-4.46
1777399303845,1930306,0.01,-0.00,1.02,2.56,-4.76,-4.52
1777399303845,1930316,0.01,-0.00,0.99,2.56,-4.76,-4.64
1777399303846,1930326,0.01,-0.00,1.00,2.50,-4.70,-4.70
1777399303846,1930336,0.01,-0.00,1.00,2.44,-4.70,-4.76
1777399303846,1930346,0.01,-0.00,1.00,2.32,-4.64,-4.88
1777399303846,1930356,0.01,-0.00,1.01,2.38,-4.70,-5.00
1777399303846,1930366,0.01,-0.00,1.00,2.38,-4.64,-4.82
1777399303846,1930386,0.01,-0.00,1.00,2.32,-4.82,-5.13
1777399303846,1930406,0.01,-0.00,1.00,2.32,-4.70,-5.00
1777399303846,1930426,0.01,-0.00,1.00,2.56,-4.76,-4.46
1777399303846,1930446,0.01,-0.00,1.00,2.50,-4.70,-4.64
1777399303847,1930456,0.01,-0.00,1.00,2.50,-4.76,-4.64
1777399303847,1930466,0.01,-0.00,1.00,2.56,-4.76,-4.52
1777399303847,1930476,0.01,-0.00,1.00,2.38,-4.76,-4.70
1777399303847,1930486,0.01,-0.00,1.00,2.32,-4.70,-5.07
1777399303847,1930496,0.01,-0.00,1.01,2.32,-4.70,-4.88
1777399303847,1930506,0.01,-0.00,1.00,2.44,-4.64,-4.76
1777399303847,1930516,0.01,-0.00,1.00,2.50,-4.76,-4.70
1777399303847,1930526,0.01,-0.00,1.00,2.56,-4.70,-4.46
1777399303847,1930536,0.01,-0.00,1.00,2.38,-4.82,-4.82
1777399303848,1930546,0.01,-0.00,1.00,2.32,-4.76,-5.07
1777399303848,1930556,0.01,-0.00,1.00,2.26,-4.70,-5.13
1777399303848,1930566,0.01,-0.00,1.00,2.26,-4.64,-4.94
1777399303848,1930576,0.01,-0.00,1.00,2.32,-4.64,-4.82
1777399303848,1930586,0.01,-0.00,1.00,2.50,-4.70,-4.58
1777399303848,1930596,0.01,-0.00,1.00,2.50,-4.70,-4.58
1777399303848,1930606,0.01,-0.00,1.00,2.56,-4.76,-4.33
1777399303848,1930616,0.01,-0.00,1.00,2.56,-4.70,-4.46
1777399303848,1930626,0.01,-0.00,1.00,2.56,-4.76,-4.52
1777399303849,1930636,0.01,-0.00,1.00,2.44,-4.76,-4.64
1777399303849,1930646,0.01,-0.00,1.00,2.38,-4.82,-4.88
1777399303849,1930656,0.01,-0.00,1.00,2.50,-4.76,-4.58
1777399303849,1930666,0.01,-0.00,1.00,2.56,-4.82,-4.27
1777399303849,1930676,0.01,-0.00,1.00,2.56,-4.76,-4.46
1777399303849,1930686,0.01,-0.00,1.00,2.44,-4.76,-4.39
1777399303849,1930696,0.01,-0.00,1.00,2.50,-4.76,-4.46
1777399303849,1930706,0.01,-0.00,1.00,2.44,-4.70,-4.58
1777399303849,1930716,0.01,-0.00,1.00,2.50,-4.70,-4.46
1777399303849,1930736,0.01,-0.00,1.00,2.50,-4.76,-4.52
1777399303850,1930756,0.01,-0.00,1.00,2.44,-4.76,-4.82
1777399303850,1930776,0.01,-0.00,1.00,2.38,-4.70,-5.07
1777399303850,1930796,0.01,-0.00,1.00,2.32,-4.70,-5.07
1777399303850,1930806,0.02,-0.00,1.00,2.32,-4.70,-5.07
1777399303850,1930816,0.01,-0.00,1.01,2.32,-4.64,-5.19
1777399303850,1930826,0.01,-0.00,1.00,2.32,-4.76,-4.88
1777399303850,1930836,0.01,-0.00,1.00,2.50,-4.82,-4.58
1777399303850,1930846,0.01,-0.00,1.00,2.50,-4.70,-4.58
1777399303850,1930856,0.01,-0.00,1.00,2.56,-4.76,-4.52
1777399303850,1930866,0.01,-0.00,1.00,2.38,-4.70,-4.70
1777399303851,1930876,0.01,-0.00,1.01,2.38,-4.70,-4.94
1777399303851,1930886,0.01,-0.00,1.00,2.38,-4.70,-4.94
1777399303851,1930896,0.01,-0.00,1.00,2.26,-4.70,-5.07
1777399303851,1930906,0.01,-0.00,1.00,2.32,-4.76,-5.00
1777399303851,1930916,0.01,-0.00,1.00,2.38,-4.70,-5.07
1777399303851,1930926,0.01,-0.00,1.00,2.32,-4.70,-4.94
1777399303851,1930936,0.01,-0.00,1.00,2.44,-4.70,-4.70
1777399303851,1930946,0.01,-0.00,1.00,2.56,-4.88,-4.70
1777399303851,1930956,0.01,-0.00,1.00,2.56,-4.88,-4.64
1777399303851,1930966,0.01,-0.00,1.00,2.44,-4.88,-4.70
1777399303852,1930976,0.01,-0.00,1.00,2.44,-4.76,-4.82
1777399303852,1930986,0.01,-0.00,1.00,2.38,-4.76,-4.94
1777399303852,1930996,0.01,-0.00,1.00,2.32,-4.82,-4.88
1777399303852,1931006,0.01,-0.00,1.00,2.38,-4.76,-4.82
1777399303852,1931016,0.01,-0.00,1.00,2.44,-4.88,-4.64
1777399303852,1931026,0.01,-0.01,1.01,2.26,-4.94,-4.76
1777399303852,1931036,0.02,-0.05,1.01,2.44,-4.52,-5.68
1777399303852,1931046,-0.01,-0.00,1.00,2.38,-4.70,-8.54
1777399303852,1931056,0.02,0.04,0.99,2.38,-4.70,-8.85
1777399303852,1931076,0.01,0.00,1.00,2.26,-4.70,-5.07
1777399303853,1931096,0.01,-0.00,1.00,2.32,-4.64,-5.07
1777399303853,1931116,0.01,-0.00,0.99,2.50,-4.64,-4.88
1777399303853,1931136,0.01,-0.00,1.01,2.56,-4.58,-4.52
1777399303853,1931146,0.01,-0.00,1.00,2.62,-4.82,-4.33
1777399303853,1931156,0.01,-0.00,0.99,2.56,-4.76,-4.64
1777399303853,1931166,0.02,-0.01,1.01,2.38,-4.76,-4.88
1777399303853,1931176,0.01,0.00,1.00,2.32,-4.76,-5.00
1777399303853,1931186,0.02,-0.00,1.00,2.26,-4.76,-5.13
1777399303853,1931196,0.01,-0.00,1.00,2.32,-4.70,-5.07
1777399303853,1931206,0.02,-0.00,0.99,2.38,-4.70,-5.07
1777399303854,1931216,0.01,-0.00,1.00,2.26,-4.58,-5.00
1777399303854,1931226,0.02,-0.01,0.98,2.32,-4.76,-4.76
1777399303854,1931236,0.02,-0.00,1.00,2.44,-4.76,-4.70
1777399303854,1931246,0.01,-0.00,1.00,2.44,-4.76,-4.64
1777399303854,1931256,0.01,-0.00,1.01,2.44,-4.70,-4.82
1777399303854,1931266,0.01,-0.00,1.00,2.38,-4.64,-4.94
1777399303854,1931276,0.01,-0.00,1.00,2.38,-4.70,-4.94
1777399303854,1931286,0.01,-0.00,1.00,2.38,-4.76,-4.82
1777399303854,1931296,0.01,-0.00,1.00,2.38,-4.70,-4.64
1777399303854,1931306,0.01,-0.00,1.00,2.50,-4.76,-4.46
1777399303854,1931316,0.01,-0.00,1.00,2.50,-4.64,-4.76
1777399303855,1931326,0.01,-0.00,0.99,2.32,-4.64,-5.13
1777399303855,1931336,0.01,-0.00,1.01,2.32,-4.70,-5.07
1777399303855,1931346,0.01,-0.00,1.00,2.32,-4.58,-5.13
1777399303855,1931356,0.01,-0.00,1.01,2.32,-4.58,-5.13
1777399303855,1931366,0.01,-0.00,1.00,2.32,-4.70,-5.13
1777399303855,1931376,0.01,-0.00,1.00,2.32,-4.64,-5.07
1777399303855,1931386,0.01,-0.00,1.00,2.26,-4.76,-5.07
1777399303855,1931396,0.01,-0.00,1.00,2.32,-4.76,-4.94
1777399303855,1931406,0.01,-0.00,1.00,2.44,-4.76,-4.82
1777399303855,1931426,0.01,-0.00,1.00,2.50,-4.70,-4.64
1777399303856,1931446,0.01,-0.00,1.00,2.38,-4.82,-4.76
1777399303856,1931466,0.01,-0.00,1.00,2.26,-4.76,-5.07
1777399303856,1931486,0.01,-0.00,1.00,2.26,-4.70,-5.07
1777399303856,1931496,0.01,-0.00,1.01,2.26,-4.64,-5.00
1777399303856,1931506,0.01,-0.00,1.00,2.38,-4.76,-5.00
1777399303856,1931516,0.01,-0.00,1.00,2.44,-4.76,-4.76
1777399303856,1931526,0.01,-0.00,1.00,2.44,-4.82,-4.88
1777399303856,1931536,0.01,-0.00,1.00,2.44,-4.70,-4.76
1777399303856,1931546,0.01,-0.00,1.00,2.44,-4.70,-4.76
1777399303856,1931556,0.01,-0.00,1.00,2.50,-4.70,-4.64
1777399303857,1931566,0.01,-0.00,1.00,2.44,-4.58,-4.82
1777399303857,1931576,0.01,-0.00,1.00,2.44,-4.70,-4.94
1777399303857,1931586,0.02,-0.00,1.00,2.38,-4.70,-5.00
1777399303857,1931596,0.01,-0.00,1.00,2.38,-4.64,-5.13
1777399303857,1931606,0.01,-0.00,1.00,2.44,-4.64,-4.94
1777399303857,1931616,0.01,-0.00,1.00,2.50,-4.70,-4.58
1777399303857,1931626,0.01,-0.00,1.00,2.50,-4.70,-4.88
1777399303857,1931636,0.01,-0.00,1.00,2.32,-4.58,-5.13
1777399303857,1931646,0.01,-0.00,1.00,2.44,-4.64,-4.88
1777399303858,1931656,0.01,-0.00,1.00,2.69,-4.70,-4.64
1777399303858,1931666,0.01,-0.00,1.00,2.69,-4.70,-4.46
1777399303858,1931676,0.01,-0.00,1.00,2.62,-4.70,-4.39
1777399303858,1931686,0.01,-0.00,1.00,2.75,-4.64,-4.39
1777399303858,1931696,0.01,-0.00,1.00,2.75,-4.70,-4.46
1777399303858,1931706,0.01,-0.00,1.00,2.69,-4.58,-4.64
1777399303858,1931716,0.02,-0.00,1.00,2.50,-4.52,-5.07
1777399303858,1931726,0.01,-0.00,1.00,2.56,-4.64,-5.00
1777399303858,1931736,0.01,-0.00,1.00,2.50,-4.58,-5.07
1777399303858,1931746,0.01,-0.00,1.03,2.56,-4.64,-4.88
1777399303859,1931766,0.01,-0.00,1.02,2.50,-4.58,-4.88
1777399303859,1931786,0.01,-0.03,1.00,2.32,-4.82,-5.13
1777399303859,1931806,-0.01,0.04,1.02,2.50,-4.82,-3.85
1777399303859,1931826,-0.03,0.04,1.01,2.14,-5.19,19.04
1777399303859,1931836,0.05,-0.11,1.01,2.14,-4.82,23.68
1777399303859,1931846,0.05,-0.09,0.99,2.08,-5.19,13.61
1777399303859,1931856,0.05,-0.07,1.00,2.14,-5.00,4.64
1777399303859,1931866,0.03,-0.01,1.01,2.32,-4.82,-0.18
1777399303859,1931876,-0.00,0.05,1.00,2.44,-4.94,0.61
1777399303860,1931886,-0.02,0.08,0.99,2.44,-4.82,5.25
1777399303860,1931896,-0.01,0.03,1.01,2.44,-4.46,11.66
1777399303860,1931906,0.02,-0.03,1.01,2.50,-4.64,14.65
1777399303860,1931916,0.01,0.02,1.00,2.56,-4.64,13.49
1777399303860,1931926,-0.00,0.03,1.01,2.56,-4.33,15.20
1777399303860,1931936,0.02,-0.00,0.99,2.26,-4.94,18.13
1777399303860,1931946,0.03,-0.03,1.01,2.44,-4.76,18.13
1777399303860,1931956,0.03,-0.04,1.00,2.14,-5.00,15.20
1777399303860,1931966,0.07,-0.11,1.00,2.38,-4.70,11.78
1777399303860,1931976,0.03,-0.11,0.98,2.62,-4.82,2.62
1777399303861,1931986,0.04,0.03,1.01,2.93,-4.33,-8.12
1777399303861,1931996,0.02,-0.00,0.98,2.87,-4.27,-6.04
1777399303861,1932006,0.01,-0.01,1.01,2.69,-4.21,-5.00
1777399303861,1932016,0.01,-0.01,1.02,2.87,-4.39,-4.88
1777399303861,1932026,0.01,-0.01,1.03,3.11,-4.64,-4.46
1777399303861,1932036,0.01,-0.01,0.99,3.23,-4.82,-4.64
1777399303861,1932046,0.01,0.01,0.98,2.99,-4.82,-4.88
1777399303861,1932056,0.01,0.01,0.99,2.50,-4.76,-5.37
1777399303861,1932066,0.01,-0.00,1.00,2.14,-4.94,-5.74
1777399303861,1932076,0.02,-0.02,1.00,2.32,-4.88,-5.68
1777399303862,1932086,0.01,0.00,0.99,2.38,-4.94,-7.51
1777399303862,1932096,0.02,0.02,1.00,2.38,-4.76,-5.07
1777399303862,1932116,0.01,0.01,1.00,2.20,-4.64,-4.88
1777399303862,1932136,0.01,-0.01,1.01,2.44,-4.76,-4.76
1777399303862,1932156,-0.03,-0.06,0.99,2.44,-5.00,-4.88
1777399303862,1932176,-0.13,0.57,1.01,0.06,-4.88,-21.67
1777399303862,1932186,-0.06,0.25,1.07,3.30,0.79,-66.83
1777399303862,1932196,0.12,-0.07,1.13,24.84,20.94,-59.45
1777399303862,1932206,-0.28,0.06,0.94,21.42,39.06,-47.49
1777399303862,1932216,-0.37,0.01,0.94,4.70,32.47,-28.32
1777399303862,1932226,-0.17,0.31,1.02,-2.14,27.28,-35.40
1777399303863,1932236,-0.05,0.60,1.04,-7.87,41.69,-49.01
1777399303863,1932246,-0.16,0.54,1.25,-26.55,62.26,-54.69
1777399303863,1932256,-0.19,0.02,1.41,-73.67,66.22,-49.26
1777399303863,1932266,-0.00,-0.59,1.84,-93.26,77.27,-37.41
1777399303863,1932276,0.10,-0.73,1.89,-26.37,82.09,-26.73
1777399303863,1932286,0.07,-0.47,1.57,48.71,77.76,-23.99
1777399303863,1932296,-0.20,0.21,1.56,68.60,79.96,-26.92
1777399303863,1932306,-0.22,0.24,1.39,54.32,73.06,-1.65
1777399303863,1932316,-0.17,0.11,1.15,52.67,71.59,17.03
1777399303863,1932326,-0.20,0.21,0.84,65.67,86.18,15.50
1777399303864,1932336,-0.17,0.22,0.64,72.51,114.14,27.95
1777399303864,1932346,-0.15,0.17,0.68,65.25,146.67,40.28
1777399303864,1932356,-0.23,0.10,0.89,56.95,172.49,36.07
1777399303864,1932366,-0.33,0.11,1.06,57.98,179.02,23.01
1777399303864,1932376,-0.36,0.20,1.07,63.42,169.56,14.77
1777399303864,1932386,-0.37,0.21,0.96,70.62,167.42,14.28
1777399303864,1932396,-0.34,0.16,0.82,82.64,177.25,17.82
1777399303864,1932406,-0.31,0.19,0.72,94.54,191.77,22.95
1777399303864,1932416,-0.36,0.23,0.73,96.98,207.95,29.11
1777399303864,1932426,-0.41,0.29,0.80,93.08,220.52,31.31
1777399303864,1932436,-0.41,0.25,0.88,83.44,218.75,29.24
1777399303865,1932446,-0.45,0.29,0.89,78.67,184.14,35.58
1777399303865,1932466,-0.61,0.27,0.86,49.07,122.01,86.91
1777399303865,1932486,-1.04,0.03,1.02,-13.24,60.30,121.03
1777399303865,1932506,-0.84,0.01,0.84,-44.56,-28.50,119.20
1777399303865,1932516,-0.66,-0.01,0.75,-45.84,-64.27,117.74
1777399303865,1932526,-0.56,0.05,0.60,-36.99,-92.77,114.62
1777399303865,1932536,-0.48,0.17,0.45,-18.25,-107.06,106.02
1777399303866,1932546,-0.46,0.14,0.42,-4.39,-105.53,102.78
1777399303866,1932556,-0.53,0.03,0.43,-7.69,-90.88,106.08
1777399303866,1932566,-0.57,0.06,0.49,-19.23,-69.89,110.11
1777399303866,1932576,-0.50,0.00,0.50,-40.34,-53.41,120.79
1777399303866,1932586,-0.40,-0.07,0.49,-64.88,-46.63,127.93
1777399303866,1932596,-0.40,0.00,0.45,-82.76,-48.58,114.99
1777399303866,1932606,-0.37,-0.02,0.45,-101.38,-49.68,98.51
1777399303866,1932616,-0.10,-0.03,0.56,-118.04,-52.00,65.12
1777399303866,1932626,-0.28,0.05,0.53,-81.42,-60.36,18.01
1777399303866,1932636,-0.45,0.23,1.07,-81.24,-89.66,19.10
1777399303867,1932646,-0.36,0.18,0.45,-100.10,-135.25,27.04
1777399303867,1932656,-0.41,0.49,0.30,-98.27,-147.52,21.24
1777399303867,1932666,-0.01,0.64,-0.02,-126.28,-125.43,16.36
1777399303867,1932676,0.29,0.53,-0.40,-181.40,-83.31,5.68
1777399303867,1932686,0.17,0.25,-0.50,-163.02,-5.92,-7.87
1777399303867,1932696,-0.01,0.12,-0.34,-128.30,101.87,-26.55
1777399303867,1932706,0.08,0.29,-0.04,-135.25,189.15,-56.03
1777399303867,1932716,0.20,0.60,0.35,-300.48,215.64,-79.90
1777399303867,1932726,0.20,0.05,-0.24,-701.78,183.47,-108.46
1777399303867,1932736,-1.41,-3.70,4.00,-671.81,138.92,-93.87
1777399303868,1932746,-0.12,0.02,0.43,352.60,80.08,-20.87
1777399303868,1932756,-0.87,0.97,1.31,172.67,100.10,-58.47
1777399303868,1932766,-0.84,0.30,1.12,-20.94,24.23,-11.35
1777399303868,1932776,-0.68,0.03,1.26,-94.30,-12.70,3.72
1777399303868,1932786,-0.38,0.19,0.94,-75.32,-4.88,-16.48
1777399303868,1932806,-0.42,-0.27,0.74,-119.81,9.46,-26.86
1777399303868,1932826,-0.57,-0.55,0.76,-65.98,5.19,-27.28
1777399303868,1932846,-0.64,-0.22,0.88,-54.81,26.37,-41.20
1777399303868,1932866,-0.90,-0.12,0.61,-73.30,45.35,-63.42
1777399303868,1932876,-0.76,-0.37,0.68,-92.77,48.10,-52.86
1777399303869,1932886,-0.78,-0.37,0.67,-98.39,63.23,-51.15
1777399303869,1932896,-0.73,-0.27,0.72,-100.65,84.11,-51.09
1777399303869,1932906,-0.73,-0.13,0.75,-115.54,102.36,-50.48
1777399303869,1932916,-0.72,-0.12,0.77,-150.39,107.85,-52.12
1777399303869,1932926,-0.70,-0.21,0.74,-178.47,104.19,-52.31
1777399303869,1932936,-0.69,-0.22,0.67,-187.81,96.68,-52.06
1777399303869,1932946,-0.65,-0.21,0.57,-187.56,83.74,-50.66
1777399303869,1932956,-0.56,-0.28,0.50,-168.64,75.93,-47.36
1777399303869,1932966,-0.44,-0.44,0.42,-128.42,74.58,-39.25
1777399303870,1932976,-0.40,-0.52,0.36,-75.87,80.51,-34.06
1777399303870,1932986,-0.46,-0.43,0.44,-36.07,95.21,-42.48
1777399303870,1932996,-0.36,-0.40,0.53,-25.57,109.01,-51.03
1777399303870,1933006,-0.37,-0.38,0.66,-27.04,116.46,-56.64
1777399303870,1933016,-0.34,-0.37,0.72,-29.79,109.13,-56.27
1777399303870,1933026,-0.61,-0.25,0.70,-40.22,89.11,-50.84
1777399303870,1933036,-0.76,-0.33,0.72,-64.64,52.06,-43.33
1777399303870,1933046,-0.52,-0.47,0.66,-65.61,11.35,-40.04
1777399303870,1933056,-0.39,-0.48,0.46,-47.61,-19.04,-43.03
1777399303870,1933066,-0.31,-0.53,0.39,-32.35,-30.64,-41.50
1777399303871,1933076,-0.21,-0.47,0.28,-16.30,-25.63,-36.99
1777399303871,1933086,-0.13,-0.45,0.33,-9.70,-7.81,-31.49
1777399303871,1933096,-0.37,-0.47,0.42,-10.19,10.19,-29.91
1777399303871,1933106,-0.52,-0.56,0.52,-7.20,17.76,-22.22
1777399303871,1933116,-0.59,-0.57,0.58,1.46,13.12,-21.97
1777399303871,1933126,-0.62,-0.54,0.61,7.93,2.75,-23.93
1777399303871,1933136,-0.67,-0.45,0.59,11.72,-27.04,-15.38
1777399303871,1933156,-0.49,-0.46,0.47,20.02,-37.05,-14.89
1777399303871,1933176,-0.35,-0.56,0.25,33.26,-29.24,-10.31
1777399303871,1933196,-0.42,-0.58,0.28,47.79,-14.47,-15.81
1777399303872,1933206,-0.43,-0.54,0.30,61.22,-18.19,-19.84
1777399303872,1933216,-0.40,-0.52,0.30,76.11,-29.91,-23.93
1777399303872,1933226,-0.33,-0.49,0.27,88.44,-44.86,-27.65
1777399303872,1933236,-0.21,-0.43,0.25,98.57,-56.64,-29.97
1777399303872,1933246,-0.11,-0.28,0.26,96.50,-67.44,-41.32
1777399303872,1933256,-0.23,-0.39,0.28,85.94,-78.00,-44.07
1777399303872,1933266,-0.26,-0.39,0.31,81.60,-86.85,-43.70
1777399303872,1933276,-0.25,-0.29,0.30,75.56,-90.09,-48.58
1777399303872,1933286,-0.28,-0.30,0.28,67.57,-99.06,-60.85
1777399303872,1933296,-0.29,-0.41,0.28,68.66,-101.44,-67.44
1777399303873,1933306,-0.27,-0.58,0.50,84.23,-106.63,-65.98
1777399303873,1933316,-0.34,-0.58,0.49,102.23,-118.41,-75.68
1777399303873,1933326,-0.39,-0.52,0.69,114.44,-109.56,-84.17
1777399303873,1933336,-0.37,-0.55,0.92,120.48,-108.89,-83.07
1777399303873,1933346,-0.38,-0.43,1.03,115.36,-120.73,-83.19
1777399303873,1933356,-0.32,-0.49,1.03,93.81,-123.72,-79.65
1777399303873,1933366,-0.28,-0.64,1.06,61.34,-109.44,-77.33
1777399303873,1933376,-0.31,-0.81,1.10,39.49,-85.39,-69.64
1777399303873,1933386,-0.36,-1.00,1.17,33.69,-62.62,-62.32
1777399303874,1933396,-0.40,-1.15,1.37,41.81,-43.58,-55.24
1777399303874,1933406,-0.42,-1.19,1.53,48.34,-34.97,-47.49
1777399303874,1933416,-0.44,-1.19,1.64,40.04,-33.45,-43.40
1777399303874,1933426,-0.49,-1.26,1.67,18.01,-32.78,-40.10
1777399303874,1933436,-0.58,-1.45,1.65,-6.23,-35.71,-36.68
1777399303874,1933446,-0.75,-1.73,1.63,-26.43,-42.36,-36.56
1777399303874,1933456,-0.85,-2.20,1.61,-40.10,-49.44,-42.11
1777399303874,1933466,-0.85,-2.84,1.64,-52.06,-52.00,-53.34
1777399303874,1933476,-0.69,-3.84,1.76,-65.37,-48.89,-62.81
1777399303875,1933496,-0.30,-4.00,2.43,-114.69,-13.98,-47.24
1777399303875,1933516,0.20,-4.00,4.00,-299.44,63.17,92.04
1777399303875,1933536,-0.49,-2.44,3.42,-600.16,210.82,282.41
1777399303875,1933556,-0.99,-0.84,2.61,-772.09,361.15,352.84
1777399303875,1933566,-0.87,-0.16,2.47,-779.17,385.01,304.38
1777399303875,1933576,-0.40,0.27,2.24,-750.12,363.46,219.06
1777399303875,1933586,0.34,0.36,1.99,-690.19,310.97,126.95
1777399303875,1933596,1.09,0.51,1.97,-597.60,246.58,45.53
1777399303876,1933606,1.72,0.85,2.11,-494.20,167.97,-15.56
1777399303876,1933616,2.13,1.44,2.13,-399.84,76.23,-42.72
1777399303876,1933626,2.28,2.02,1.95,-339.78,-2.93,-23.07
1777399303876,1933636,1.93,2.19,1.69,-329.77,-52.49,32.29
1777399303876,1933646,1.54,2.06,1.13,-332.34,-74.22,99.61
1777399303876,1933656,0.96,1.80,0.64,-316.35,-58.47,157.71
1777399303876,1933666,0.26,1.41,0.29,-262.76,-1.95,185.24
1777399303876,1933676,-0.33,0.94,0.62,-181.09,75.87,180.60
1777399303876,1933686,-0.81,0.73,1.11,-95.95,111.21,149.54
1777399303877,1933696,-1.02,0.79,1.30,-43.64,84.78,100.95
1777399303877,1933706,-1.05,0.80,1.14,-34.79,33.87,48.34
1777399303877,1933716,-0.87,0.77,0.79,-43.03,-7.02,3.17
1777399303877,1933726,-0.64,0.77,0.42,-46.02,-26.79,-26.79
1777399303877,1933736,-0.46,0.74,0.14,-40.71,-29.05,-36.68
1777399303877,1933746,-0.39,0.68,-0.04,-29.24,-22.52,-31.13
1777399303877,1933756,-0.39,0.56,-0.17,-14.83,-15.93,-20.39
1777399303877,1933766,-0.43,0.38,-0.29,1.34,-11.90,-14.89
1777399303877,1933776,-0.47,0.22,-0.37,20.94,-8.42,-19.96
1777399303878,1933786,-0.50,0.07,-0.42,41.50,-8.48,-33.51
1777399303878,1933796,-0.50,-0.04,-0.45,62.19,-14.89,-48.83
1777399303878,1933806,-0.44,-0.08,-0.49,81.67,-23.13,-59.45
1777399303878,1933816,-0.40,-0.06,-0.50,94.85,-28.50,-62.62
1777399303878,1933826,-0.40,-0.10,-0.54,101.93,-16.24,-40.10
1777399303878,1933846,-0.61,-0.32,-0.49,131.29,-14.04,-18.86
1777399303878,1933866,-0.91,-0.79,-0.35,128.05,-28.56,-40.04
1777399303878,1933886,-0.70,-0.88,-0.56,103.15,-58.90,-80.44
1777399303879,1933906,-0.44,-0.67,-0.76,101.93,-49.93,-77.45
1777399303879,1933916,-0.46,-0.61,-0.71,110.84,-26.06,-50.42
1777399303879,1933926,-0.58,-0.54,-0.73,119.45,4.70,-18.19
1777399303879,1933936,-0.71,-0.65,-0.56,123.17,31.92,8.91
1777399303879,1933946,-0.92,-0.75,-0.39,123.47,43.15,17.09
1777399303879,1933956,-1.00,-0.84,-0.31,119.51,35.40,8.79
1777399303879,1933966,-0.95,-0.96,-0.27,112.55,15.81,-13.61
1777399303879,1933976,-0.81,-0.97,-0.32,105.47,-11.29,-43.88
1777399303879,1933986,-0.64,-0.85,-0.40,100.10,-37.11,-67.32
1777399303880,1933996,-0.46,-0.74,-0.51,97.17,-50.42,-71.17
1777399303880,1934006,-0.38,-0.67,-0.57,94.12,-47.36,-57.92
1777399303880,1934016,-0.38,-0.66,-0.56,92.77,-32.53,-37.29
1777399303880,1934026,-0.44,-0.67,-0.48,95.40,-14.04,-16.48
1777399303880,1934036,-0.51,-0.67,-0.36,99.98,0.06,-2.62
1777399303880,1934046,-0.56,-0.67,-0.27,103.58,4.21,3.54
1777399303880,1934056,-0.58,-0.70,-0.24,105.04,1.10,2.08
1777399303880,1934066,-0.57,-0.73,-0.23,105.90,-5.43,-5.98
1777399303880,1934076,-0.51,-0.71,-0.21,106.32,-15.26,-17.52
1777399303881,1934086,-0.42,-0.72,-0.23,104.80,-30.70,-26.37
1777399303881,1934096,-0.37,-0.68,-0.30,104.37,-45.53,-30.33
1777399303881,1934106,-0.36,-0.64,-0.35,107.06,-52.06,-26.98
1777399303881,1934116,-0.38,-0.61,-0.36,112.55,-49.87,-17.15
1777399303881,1934126,-0.43,-0.59,-0.33,119.26,-41.56,-3.48
1777399303881,1934136,-0.51,-0.62,-0.28,125.24,-29.42,8.42
1777399303881,1934146,-0.60,-0.67,-0.20,129.64,-18.01,13.24
1777399303881,1934156,-0.64,-0.72,-0.10,133.24,-12.88,9.83
1777399303881,1934166,-0.65,-0.75,-0.03,134.22,-18.07,-14.95
1777399303882,1934186,-0.51,-0.78,-0.03,130.37,-61.10,-26.98
1777399303882,1934206,-0.39,-0.68,-0.06,130.25,-64.45,-15.81
1777399303882,1934226,-0.48,-0.72,0.03,129.46,-43.15,12.33
1777399303882,1934246,-0.65,-0.83,0.17,129.52,-25.15,27.77
1777399303882,1934256,-0.71,-0.89,0.26,127.01,-23.68,24.78
1777399303882,1934266,-0.72,-0.94,0.32,121.70,-30.52,14.47
1777399303882,1934276,-0.67,-0.97,0.34,115.84,-44.19,1.53
1777399303882,1934286,-0.59,-0.95,0.30,111.51,-59.08,-8.85
1777399303882,1934296,-0.51,-0.91,0.25,109.13,-68.12,-13.79
1777399303882,1934306,-0.49,-0.87,0.23,108.40,-69.15,-11.54
1777399303883,1934316,-0.53,-0.85,0.23,108.40,-63.48,-3.91
1777399303883,1934326,-0.59,-0.88,0.26,108.40,-53.34,5.49
1777399303883,1934336,-0.67,-0.91,0.30,109.13,-41.81,12.39
1777399303883,1934346,-0.72,-0.95,0.34,110.05,-30.52,14.40
1777399303883,1934356,-0.76,-0.97,0.39,110.53,-19.53,10.74
1777399303883,1934366,-0.75,-1.00,0.47,107.73,-10.44,3.05
1777399303883,1934376,-0.72,-1.01,0.54,102.72,-8.67,-5.19
1777399303883,1934386,-0.69,-1.01,0.59,94.79,-14.28,-13.55
1777399303883,1934396,-0.64,-0.98,0.61,85.69,-25.27,-20.75
1777399303883,1934406,-0.61,-0.95,0.58,76.23,-37.17,-24.60
1777399303884,1934416,-0.57,-0.93,0.52,66.96,-44.68,-24.29
1777399303884,1934426,-0.54,-0.92,0.47,59.27,-44.62,-21.30
1777399303884,1934436,-0.53,-0.93,0.43,53.59,-37.29,-17.46
1777399303884,1934446,-0.54,-0.91,0.42,51.76,-25.51,-14.53
1777399303884,1934456,-0.55,-0.88,0.44,52.25,-12.76,-13.43
1777399303884,1934466,-0.55,-0.85,0.47,51.45,-2.44,-13.00
1777399303884,1934476,-0.53,-0.81,0.49,49.38,3.85,-12.94
1777399303884,1934486,-0.51,-0.74,0.52,43.46,6.90,-13.61
1777399303884,1934496,-0.50,-0.68,0.53,33.14,5.49,-13.00
1777399303885,1934506,-0.46,-0.67,0.48,22.83,1.16,-10.44
1777399303885,1934516,-0.41,-0.65,0.39,16.66,14.22,-6.90
1777399303885,1934536,-0.36,-0.60,0.24,42.48,16.24,-4.27
1777399303885,1934556,-0.47,-0.56,0.58,45.53,13.00,-7.57
1777399303885,1934576,-0.56,-0.43,0.44,36.32,-20.02,-29.24
1777399303885,1934596,-0.60,-0.44,0.54,56.64,-24.29,-39.25
1777399303885,1934606,-0.54,-0.45,0.59,57.13,-23.32,-46.51
1777399303885,1934616,-0.54,-0.47,0.56,60.18,-23.32,-49.13
1777399303885,1934626,-0.42,-0.62,0.43,62.07,-21.24,-52.25
1777399303885,1934636,-0.52,-0.52,0.55,56.95,-7.63,-62.99
1777399303886,1934646,-0.51,-0.41,0.63,55.54,3.66,-67.32
1777399303886,1934656,-0.49,-0.41,0.77,50.90,3.36,-63.11
1777399303886,1934666,-0.45,-0.57,0.74,55.18,-5.25,-54.50
1777399303886,1934676,-0.45,-0.61,0.65,59.02,-13.06,-51.57
1777399303886,1934686,-0.51,-0.54,0.80,56.64,-16.85,-49.68
1777399303886,1934696,-0.42,-0.80,0.86,65.49,-21.30,-40.47
1777399303886,1934706,-0.48,-0.75,0.62,68.85,-27.22,-41.32
1777399303886,1934716,-0.43,-0.80,0.65,63.54,-13.00,-44.25
1777399303886,1934726,-0.47,-0.72,0.92,55.48,5.62,-40.47
1777399303886,1934736,-0.46,-0.71,0.89,52.25,9.03,-31.92
1777399303887,1934746,-0.46,-0.71,0.88,43.88,6.65,-24.29
1777399303887,1934756,-0.41,-0.81,0.85,33.81,5.80,-17.70
1777399303887,1934766,-0.42,-0.80,0.81,30.15,2.44,-14.22
1777399303887,1934776,-0.44,-0.80,0.82,31.80,-2.56,-11.78
1777399303887,1934786,-0.42,-0.77,0.71,35.03,-10.80,-10.99
1777399303887,1934796,-0.41,-0.75,0.70,41.08,-14.83,-10.56
1777399303887,1934806,-0.39,-0.72,0.66,47.06,-17.52,-10.74
1777399303887,1934816,-0.38,-0.72,0.70,52.00,-22.16,-10.56
1777399303887,1934826,-0.36,-0.66,0.62,52.25,-29.66,-11.54
1777399303888,1934836,-0.34,-0.55,0.55,48.16,-33.45,-11.78
1777399303888,1934846,-0.37,-0.58,0.64,39.06,-33.08,-8.00
1777399303888,1934856,-0.33,-0.55,0.50,29.91,-36.80,-6.90
1777399303888,1934876,-0.34,-0.56,0.46,33.45,-45.90,-8.85
1777399303888,1934896,-0.26,-0.45,0.51,40.34,-50.60,-14.40
1777399303888,1934916,-0.30,-0.52,0.69,43.09,-58.04,-8.73
1777399303888,1934936,-0.47,-0.77,0.90,42.18,-76.05,-8.06
1777399303888,1934946,-0.62,-1.04,1.08,44.98,-93.32,-12.45
1777399303888,1934956,-0.73,-1.57,1.36,45.72,-121.28,-18.80
1777399303888,1934966,-0.66,-2.58,1.60,40.89,-146.42,-31.74
1777399303889,1934976,-0.47,-4.00,2.14,37.54,-150.82,-48.16
1777399303889,1934986,-0.28,-4.00,2.94,45.29,-141.54,-69.09
1777399303889,1934996,-0.24,-4.00,3.99,53.16,-110.90,-72.51
1777399303889,1935006,-0.41,-4.00,4.00,10.74,-50.29,-31.56
1777399303889,1935016,-0.93,-4.00,4.00,-133.54,23.62,34.00
1777399303889,1935026,-1.51,-4.00,4.00,-375.49,81.36,99.91
1777399303889,1935036,-1.75,-3.62,4.00,-644.90,133.61,150.82
1777399303889,1935046,-1.72,-2.14,4.00,-854.98,207.34,177.73
1777399303889,1935056,-1.45,-0.87,4.00,-973.69,286.44,185.85
1777399303889,1935066,-1.02,0.28,3.71,-1008.97,345.83,170.23
1777399303890,1935076,-0.36,1.01,3.44,-988.46,362.12,136.47
1777399303890,1935086,0.43,1.42,3.02,-930.18,323.06,96.07
1777399303890,1935096,1.52,1.43,2.43,-837.52,265.81,60.12
1777399303890,1935106,2.10,1.78,3.32,-717.22,219.54,23.80
1777399303890,1935116,1.94,1.52,2.46,-602.84,96.80,9.34
1777399303890,1935126,3.53,2.09,1.51,-534.12,18.62,-6.96
1777399303890,1935136,2.67,1.86,1.97,-444.52,58.53,-12.57
1777399303890,1935146,2.16,2.44,1.84,-352.05,25.88,17.52
1777399303891,1935156,2.40,3.89,1.73,-310.18,-28.08,87.65
1777399303891,1935166,0.58,2.13,1.83,-363.28,-73.97,236.94
1777399303891,1935176,2.78,2.65,0.44,-415.59,-70.19,359.62
1777399303891,1935186,-0.90,-0.73,1.02,-481.57,71.72,439.27
1777399303891,1935196,-1.52,-0.59,1.35,-342.47,81.48,201.35
1777399303891,1935206,-1.67,0.22,0.92,-149.54,-109.56,-87.22
1777399303891,1935226,-0.65,1.52,0.20,-6.41,-101.87,-80.02
1777399303891,1935246,-0.39,0.73,0.10,-14.47,-23.44,3.42
1777399303891,1935266,-0.36,0.46,0.13,7.20,-54.75,9.89
1777399303892,1935286,-0.24,0.33,-0.16,-1.77,-104.68,-40.77
1777399303892,1935296,-0.40,0.45,-0.09,20.57,-135.50,-56.76
1777399303892,1935306,-0.19,0.38,-1.52,83.25,-169.07,-46.33
1777399303892,1935316,0.03,0.00,-1.34,79.65,-129.88,-33.69
1777399303892,1935326,-0.27,0.30,-0.92,102.05,-55.11,-34.18
1777399303892,1935336,-0.41,0.34,-0.63,138.43,-31.13,-14.34
1777399303892,1935346,-0.64,0.24,-0.44,152.83,-36.07,8.61
1777399303892,1935356,-0.90,0.00,-0.28,153.87,-48.03,21.42
1777399303892,1935366,-1.08,-0.36,-0.16,142.15,-66.22,14.89
1777399303893,1935376,-1.33,-0.35,-0.25,127.93,-93.75,-12.02
1777399303893,1935386,-1.28,-0.44,-0.50,115.30,-114.99,-37.60
1777399303893,1935396,-1.29,-0.55,-0.68,109.99,-110.53,-59.39
1777399303893,1935406,-1.26,-0.57,-0.77,120.12,-100.71,-72.94
1777399303893,1935416,-1.19,-0.55,-0.76,138.31,-89.78,-74.22
1777399303893,1935426,-1.19,-0.58,-0.61,155.09,-77.64,-68.97
1777399303893,1935436,-1.17,-0.39,-0.65,164.12,-62.74,-57.74
1777399303893,1935446,-1.13,-0.55,-0.54,156.98,-40.47,-40.28
1777399303893,1935456,-1.20,-0.51,-0.47,148.86,-13.12,-36.01
1777399303894,1935466,-1.15,-0.66,-0.28,137.82,-1.10,-36.80
1777399303894,1935476,-1.15,-0.69,-0.30,128.91,-3.42,-49.62
1777399303894,1935486,-0.98,-0.69,-0.37,122.07,-13.85,-64.27
1777399303894,1935496,-0.80,-0.71,-0.46,116.09,-22.34,-76.72
1777399303894,1935506,-0.65,-0.70,-0.55,114.32,-27.16,-81.85
1777399303894,1935516,-0.60,-0.63,-0.59,121.03,-26.92,-77.33
1777399303894,1935526,-0.59,-0.58,-0.59,130.68,-22.64,-63.60
1777399303894,1935536,-0.67,-0.56,-0.54,136.60,-13.18,-48.71
1777399303895,1935546,-0.76,-0.58,-0.43,135.68,-2.50,-39.73
1777399303895,1935566,-0.88,-0.66,-0.24,120.85,-12.08,-53.41
1777399303895,1935586,-0.77,-0.71,-0.29,110.05,-33.69,-75.74
1777399303895,1935606,-0.46,-0.71,-0.38,114.69,-43.46,-79.04
1777399303895,1935626,-0.42,-0.71,-0.35,130.49,-31.92,-57.62
1777399303895,1935636,-0.48,-0.71,-0.28,135.07,-20.63,-45.04
1777399303895,1935646,-0.55,-0.72,-0.18,134.28,-9.28,-35.16
1777399303895,1935656,-0.60,-0.74,-0.09,128.66,-2.99,-28.38
1777399303895,1935666,-0.63,-0.75,-0.03,120.12,-2.62,-24.90
1777399303896,1935676,-0.63,-0.76,0.01,110.78,-7.32,-24.05
1777399303896,1935686,-0.62,-0.76,-0.01,100.59,-17.76,-25.33
1777399303896,1935696,-0.58,-0.78,-0.06,92.04,-28.75,-27.10
1777399303896,1935706,-0.54,-0.80,-0.13,89.42,-37.05,-27.59
1777399303896,1935716,-0.52,-0.80,-0.19,92.83,-40.10,-26.98
1777399303896,1935726,-0.52,-0.82,-0.20,97.96,-36.56,-24.35
1777399303896,1935736,-0.54,-0.84,-0.17,104.43,-29.05,-19.78
1777399303896,1935746,-0.60,-0.88,-0.10,111.33,-21.48,-15.50
1777399303896,1935756,-0.63,-0.90,-0.03,116.76,-17.03,-14.53
1777399303897,1935766,-0.65,-0.89,0.02,119.14,-16.60,-16.91
1777399303897,1935776,-0.66,-0.89,0.06,118.53,-18.68,-19.29
1777399303897,1935786,-0.66,-0.91,0.09,115.72,-22.89,-20.57
1777399303897,1935796,-0.64,-0.93,0.12,112.06,-27.89,-21.85
1777399303897,1935806,-0.61,-0.92,0.14,106.93,-32.17,-23.19
1777399303897,1935816,-0.61,-0.90,0.14,99.91,-34.30,-21.97
1777399303897,1935826,-0.62,-0.93,0.14,93.75,-34.18,-16.36
1777399303897,1935836,-0.66,-0.97,0.15,90.45,-30.21,-10.44
1777399303898,1935846,-0.63,-0.97,0.13,87.89,-21.85,-6.41
1777399303898,1935856,-0.68,-0.97,0.22,82.82,-13.06,-4.33
1777399303898,1935866,-0.67,-0.92,0.19,76.78,-8.97,-2.32
1777399303898,1935876,-0.66,-0.90,0.25,68.97,-2.26,3.11
1777399303898,1935886,-0.67,-0.90,0.24,61.28,-0.37,6.53
1777399303898,1935896,-0.66,-0.89,0.23,51.94,-0.61,7.20
1777399303899,1935916,-0.69,-0.89,0.22,39.73,-8.06,3.30
1777399303899,1935936,-0.67,-0.86,0.19,44.49,-12.51,-8.48
1777399303899,1935956,-0.66,-0.77,0.21,49.32,-5.49,-9.22
1777399303899,1935976,-0.66,-0.72,0.25,45.59,1.59,-3.78
1777399303899,1935986,-0.66,-0.72,0.27,40.71,1.95,-0.67
1777399303899,1935996,-0.63,-0.76,0.28,35.52,-1.16,0.73
1777399303899,1936006,-0.61,-0.83,0.25,31.19,-7.39,-4.03
1777399303899,1936016,-0.60,-0.82,0.24,29.97,-12.51,-14.53
1777399303899,1936026,-0.57,-0.77,0.25,32.59,-16.05,-23.01
1777399303900,1936036,-0.54,-0.73,0.22,36.62,-23.93,-26.73
1777399303900,1936046,-0.51,-0.71,0.20,39.25,-29.05,-26.18
1777399303900,1936056,-0.48,-0.73,0.18,41.38,-28.87,-23.44
1777399303900,1936066,-0.48,-0.74,0.21,43.76,-25.02,-21.73
1777399303900,1936076,-0.51,-0.72,0.27,47.73,-20.81,-20.32
1777399303900,1936086,-0.49,-0.75,0.31,50.05,-18.37,-18.43
1777399303900,1936096,-0.49,-0.76,0.34,50.72,-16.60,-19.53
1777399303900,1936106,-0.52,-0.71,0.39,50.90,-14.95,-20.81
1777399303901,1936116,-0.51,-0.67,0.44,50.11,-16.60,-17.94
1777399303901,1936126,-0.50,-0.71,0.46,47.73,-21.79,-12.94
1777399303901,1936136,-0.52,-0.74,0.46,46.45,-27.95,-9.77
1777399303901,1936146,-0.52,-0.75,0.47,48.16,-30.46,-7.81
1777399303901,1936156,-0.53,-0.71,0.48,50.66,-31.49,-7.39
1777399303901,1936166,-0.55,-0.69,0.50,50.42,-31.62,-7.39
1777399303901,1936176,-0.55,-0.68,0.52,49.01,-31.07,-8.00
1777399303901,1936186,-0.54,-0.67,0.54,47.12,-28.87,-9.09
1777399303901,1936196,-0.52,-0.64,0.54,43.09,-26.37,-10.25
1777399303902,1936206,-0.51,-0.63,0.54,36.74,-23.86,-9.40
1777399303902,1936216,-0.50,-0.63,0.53,29.91,-22.64,-6.47
1777399303902,1936226,-0.50,-0.64,0.52,25.39,-21.67,-2.69
1777399303902,1936236,-0.50,-0.65,0.49,22.52,-20.45,0.79
1777399303902,1936256,-0.53,-0.69,0.48,22.09,-16.97,4.76
1777399303902,1936276,-0.56,-0.70,0.50,23.25,-18.68,1.83
1777399303902,1936296,-0.55,-0.73,0.46,30.64,-29.36,-1.89
1777399303902,1936316,-0.56,-0.67,0.48,34.73,-23.86,-8.54
1777399303902,1936326,-0.57,-0.69,0.51,32.17,-20.51,-10.38
1777399303903,1936336,-0.56,-0.69,0.53,29.54,-19.84,-11.23
1777399303903,1936346,-0.55,-0.70,0.52,26.73,-20.69,-12.08
1777399303903,1936356,-0.54,-0.70,0.53,24.48,-21.67,-12.63
1777399303903,1936366,-0.54,-0.71,0.53,22.89,-23.56,-12.57
1777399303903,1936376,-0.54,-0.72,0.54,22.71,-25.09,-12.45
1777399303903,1936386,-0.53,-0.72,0.54,23.32,-26.12,-12.08
1777399303903,1936396,-0.54,-0.72,0.55,23.25,-25.94,-11.17
1777399303903,1936406,-0.54,-0.72,0.56,22.83,-24.90,-10.01
1777399303903,1936416,-0.53,-0.71,0.56,22.03,-23.19,-8.48
1777399303904,1936426,-0.55,-0.70,0.57,20.57,-19.78,-6.96
1777399303904,1936436,-0.56,-0.71,0.59,19.23,-16.66,-5.31
1777399303904,1936446,-0.58,-0.71,0.61,18.37,-14.53,-4.76
1777399303904,1936456,-0.58,-0.69,0.62,17.82,-13.31,-5.31
1777399303904,1936466,-0.57,-0.69,0.62,16.30,-12.39,-5.00
1777399303904,1936476,-0.58,-0.68,0.64,14.10,-10.07,-5.37
1777399303904,1936486,-0.59,-0.67,0.65,10.13,-8.36,-5.31
1777399303904,1936496,-0.59,-0.67,0.64,5.86,-8.36,-5.13
1777399303904,1936506,-0.60,-0.67,0.62,2.62,-8.61,-5.31
1777399303904,1936516,-0.58,-0.67,0.59,-0.24,-8.48,-5.55
1777399303905,1936526,-0.58,-0.62,0.56,-2.08,-7.75,-6.29
1777399303905,1936536,-0.56,-0.63,0.54,-3.36,-6.71,-4.21
1777399303905,1936546,-0.55,-0.66,0.52,-3.60,-4.94,-2.56
1777399303905,1936556,-0.56,-0.65,0.54,-2.20,-1.40,-4.21
1777399303905,1936566,-0.55,-0.63,0.52,-1.34,0.24,-5.80
1777399303905,1936576,-0.55,-0.64,0.53,-0.73,1.04,-6.29
1777399303905,1936586,-0.57,-0.63,0.55,0.67,1.89,-6.29
1777399303905,1936606,-0.53,-0.62,0.53,-0.24,-0.24,-6.41
1777399303905,1936626,-0.52,-0.63,0.51,0.06,1.83,-4.88
1777399303906,1936646,-0.52,-0.62,0.53,1.10,1.59,-6.47
1777399303906,1936666,-0.53,-0.64,0.55,4.88,-0.79,-6.90
1777399303906,1936676,-0.52,-0.63,0.57,6.41,-0.98,-7.51
1777399303906,1936686,-0.52,-0.65,0.56,7.08,-1.53,-8.18
1777399303906,1936696,-0.53,-0.63,0.58,8.42,-0.92,-8.91
1777399303906,1936706,-0.50,-0.65,0.59,9.70,0.12,-8.61
1777399303906,1936716,-0.49,-0.62,0.59,9.89,1.53,-9.40
1777399303906,1936726,-0.49,-0.61,0.60,9.58,2.44,-9.64
1777399303907,1936736,-0.46,-0.61,0.59,7.93,2.01,-8.12
1777399303907,1936746,-0.43,-0.62,0.57,5.92,1.16,-7.51
1777399303907,1936756,-0.44,-0.59,0.56,4.64,0.18,-6.59
1777399303907,1936766,-0.42,-0.61,0.55,3.85,-1.16,-2.50
1777399303907,1936776,-0.43,-0.63,0.55,2.87,-2.20,-0.49
1777399303907,1936786,-0.47,-0.58,0.58,2.62,-2.87,-1.28
1777399303907,1936796,-0.39,-0.64,0.56,1.40,-4.58,0.24
1777399303907,1936806,-0.44,-0.64,0.57,0.43,-6.96,-1.95
1777399303907,1936816,-0.40,-0.62,0.46,1.28,-13.49,-3.11
1777399303907,1936826,-0.42,-0.60,0.52,1.95,-10.38,-2.26
1777399303908,1936836,-0.43,-0.60,0.54,3.23,-9.58,0.61
1777399303908,1936846,-0.41,-0.67,0.51,5.00,-15.01,3.36
1777399303908,1936856,-0.41,-0.68,0.48,8.30,-16.30,2.20
1777399303908,1936866,-0.44,-0.67,0.50,12.94,-13.24,-0.73
1777399303908,1936876,-0.45,-0.67,0.51,17.82,-12.21,-2.69
1777399303908,1936886,-0.46,-0.66,0.52,23.25,-11.66,-4.03
1777399303908,1936896,-0.47,-0.65,0.54,28.75,-9.89,-4.76
1777399303908,1936906,-0.48,-0.66,0.56,32.29,-7.87,-5.62
1777399303909,1936916,-0.50,-0.68,0.57,35.83,-6.53,-6.71
1777399303909,1936926,-0.52,-0.66,0.59,40.16,-5.00,-8.73
1777399303909,1936946,-0.54,-0.64,0.61,46.69,0.31,-15.50
1777399303909,1936966,-0.54,-0.54,0.57,33.02,-5.43,-28.26
1777399303909,1936986,-0.65,-0.64,0.63,38.70,13.85,-20.87
1777399303909,1937006,-0.62,-0.53,0.65,16.91,5.62,-35.77
1777399303909,1937016,-0.60,-0.49,0.63,14.89,4.58,-37.23
1777399303909,1937026,-0.59,-0.51,0.60,12.08,4.82,-35.77
1777399303909,1937036,-0.61,-0.51,0.64,12.63,8.73,-31.86
1777399303910,1937046,-0.61,-0.52,0.64,12.33,7.08,-28.63
1777399303910,1937056,-0.58,-0.55,0.63,11.96,4.03,-26.18
1777399303910,1937066,-0.56,-0.56,0.59,9.83,0.67,-25.57
1777399303910,1937076,-0.54,-0.58,0.53,10.86,-0.18,-26.67
1777399303910,1937086,-0.46,-0.65,0.41,12.08,1.10,-29.42
1777399303910,1937096,-0.44,-0.59,0.38,14.53,9.64,-33.81
1777399303910,1937106,-0.40,-0.57,0.39,15.75,22.52,-37.11
1777399303910,1937116,-0.41,-0.54,0.44,22.95,38.02,-39.67
1777399303910,1937126,-0.39,-0.49,0.38,31.07,45.90,-39.73
1777399303911,1937136,-0.43,-0.42,0.55,35.95,46.88,-36.99
1777399303911,1937146,-0.49,-0.40,0.71,39.92,38.21,-29.97
1777399303911,1937156,-0.52,-0.41,0.72,39.18,19.96,-21.42
1777399303911,1937166,-0.53,-0.44,0.70,40.65,-0.18,-12.88
1777399303911,1937176,-0.49,-0.56,0.55,44.74,-16.17,-5.19
1777399303911,1937186,-0.58,-0.56,0.77,44.80,-20.14,-3.72
1777399303911,1937196,-0.48,-0.76,0.63,50.66,-33.87,-5.74
1777399303911,1937206,-0.48,-0.59,0.53,55.91,-43.21,-15.50
1777399303911,1937216,-0.47,-0.52,0.58,54.69,-37.60,-14.83
1777399303912,1937226,-0.47,-0.57,0.62,51.39,-29.60,-10.01
1777399303912,1937236,-0.45,-0.60,0.68,45.04,-22.83,-8.12
1777399303912,1937246,-0.48,-0.61,0.73,39.18,-19.78,-7.39
1777399303912,1937256,-0.50,-0.65,0.76,36.01,-20.08,-6.53
1777399303912,1937266,-0.49,-0.67,0.79,34.61,-23.07,-6.65
1777399303912,1937276,-0.47,-0.65,0.72,36.87,-26.31,-7.45
1777399303912,1937296,-0.48,-0.69,0.74,41.69,-12.21,-10.19
1777399303912,1937316,-0.50,-0.55,0.81,47.12,-13.43,-9.70
1777399303913,1937336,-0.51,-0.55,0.78,37.72,-7.75,-8.24
1777399303913,1937356,-0.46,-0.57,0.79,22.64,-2.75,-8.06
1777399303913,1937366,-0.50,-0.57,0.78,17.03,-3.60,-9.16
1777399303913,1937376,-0.44,-0.56,0.70,14.59,-2.75,-12.33
1777399303913,1937386,-0.39,-0.53,0.68,16.36,3.05,-14.16
1777399303913,1937396,-0.48,-0.52,0.72,19.04,10.19,-13.00
1777399303913,1937406,-0.45,-0.49,0.73,19.65,13.00,-13.85
1777399303913,1937416,-0.43,-0.49,0.74,18.62,11.29,-13.12
1777399303913,1937426,-0.47,-0.46,0.76,17.52,6.29,-12.51
1777399303913,1937436,-0.45,-0.47,0.71,19.41,-0.24,-10.56
1777399303914,1937446,-0.43,-0.45,0.69,21.36,-5.49,-8.73
1777399303914,1937456,-0.43,-0.45,0.69,22.22,-8.00,-6.96
1777399303914,1937466,-0.46,-0.46,0.71,21.48,-9.58,-4.88
1777399303914,1937476,-0.45,-0.45,0.72,21.30,-9.58,-3.85
1777399303914,1937486,-0.50,-0.43,0.77,19.41,-8.48,-5.49
1777399303914,1937496,-0.47,-0.53,0.77,14.77,-9.77,-4.88
1777399303914,1937506,-0.43,-0.51,0.68,12.88,-10.38,-8.79
1777399303914,1937516,-0.47,-0.52,0.79,9.46,-7.45,-10.31
1777399303914,1937526,-0.44,-0.52,0.76,12.70,-9.89,-11.35
1777399303914,1937536,-0.45,-0.53,0.77,14.47,-12.63,-11.90
1777399303915,1937546,-0.44,-0.57,0.81,15.81,-15.75,-13.00
1777399303915,1937556,-0.42,-0.58,0.78,18.68,-20.63,-17.15
1777399303915,1937566,-0.41,-0.54,0.75,19.84,-22.71,-21.73
1777399303915,1937576,-0.45,-0.50,0.66,19.41,-19.53,-24.90
1777399303915,1937586,-0.41,-0.49,0.72,8.42,-5.98,-31.07
1777399303915,1937596,-0.29,-0.50,0.77,2.56,6.53,-27.89
1777399303915,1937606,-0.37,-0.47,0.84,1.16,16.72,-26.67
1777399303915,1937616,-0.42,-0.44,0.85,-0.92,21.91,-23.07
1777399303915,1937636,-0.39,-0.44,0.83,-25.94,26.49,-14.71
1777399303916,1937656,-0.39,-0.48,0.87,-28.32,18.98,-3.91
1777399303916,1937676,-0.36,-0.55,0.69,-16.85,15.93,4.94
1777399303916,1937696,-0.44,-0.56,0.69,-13.98,31.56,-4.82
1777399303916,1937706,-0.38,-0.41,0.57,-13.98,41.93,-7.93
1777399303916,1937716,-0.62,-0.59,0.90,-33.45,65.19,-13.92
1777399303916,1937726,-0.63,-0.49,0.80,-25.09,51.76,-17.94
1777399303916,1937736,-0.57,-0.37,0.78,-21.00,33.75,-17.21
1777399303916,1937746,-0.53,-0.35,0.79,-31.31,23.25,-9.46
1777399303916,1937756,-0.52,-0.46,0.75,-42.79,14.71,-0.06
1777399303917,1937766,-0.51,-0.47,0.79,-53.34,10.50,6.16
1777399303917,1937776,-0.54,-0.49,0.76,-59.14,3.48,7.63
1777399303917,1937786,-0.53,-0.53,0.62,-57.25,-5.92,10.13
1777399303917,1937796,-0.54,-0.63,0.52,-56.15,-5.55,8.30
1777399303917,1937806,-0.50,-0.63,0.43,-50.48,4.46,-3.54
1777399303917,1937816,-0.48,-0.57,0.41,-36.99,21.97,-11.78
1777399303917,1937826,-0.49,-0.55,0.43,-20.02,41.69,-12.57
1777399303917,1937836,-0.56,-0.48,0.58,-9.64,54.69,-14.83
1777399303917,1937846,-0.55,-0.36,0.68,-11.17,54.81,-17.21
1777399303918,1937856,-0.57,-0.40,0.77,-28.99,46.08,-15.44
1777399303918,1937866,-0.57,-0.49,0.70,-48.65,28.14,-9.34
1777399303918,1937876,-0.55,-0.54,0.61,-53.83,13.73,-0.49
1777399303918,1937886,-0.49,-0.58,0.49,-53.41,4.94,5.00
1777399303918,1937896,-0.46,-0.61,0.47,-50.42,4.52,9.03
1777399303918,1937906,-0.47,-0.64,0.40,-43.52,7.75,12.15
1777399303918,1937916,-0.50,-0.61,0.49,-35.52,13.24,12.45
1777399303918,1937926,-0.49,-0.60,0.45,-32.90,12.33,12.57
1777399303918,1937936,-0.51,-0.65,0.42,-28.32,11.35,13.43
1777399303918,1937946,-0.50,-0.64,0.47,-21.12,12.08,11.60
1777399303919,1937956,-0.53,-0.65,0.51,-17.09,8.00,10.19
1777399303919,1937966,-0.53,-0.67,0.51,-13.00,0.12,8.79
1777399303919,1937986,-0.53,-0.64,0.51,-3.54,-18.25,9.09
1777399303919,1938006,-0.57,-0.67,0.54,-2.38,-18.37,9.34
1777399303919,1938026,-0.59,-0.71,0.57,-2.56,-15.32,9.34
1777399303919,1938046,-0.62,-0.67,0.61,-2.87,-11.72,8.67
1777399303919,1938056,-0.61,-0.68,0.59,-5.37,-8.54,10.13
1777399303919,1938066,-0.62,-0.68,0.60,-8.42,-4.03,11.35
1777399303919,1938076,-0.65,-0.68,0.61,-10.99,-0.85,11.96
1777399303919,1938086,-0.64,-0.68,0.59,-12.82,0.43,11.84
1777399303920,1938096,-0.65,-0.68,0.58,-14.47,2.50,10.56
1777399303920,1938106,-0.64,-0.68,0.57,-15.44,4.21,9.09
1777399303920,1938116,-0.65,-0.65,0.56,-16.48,5.55,6.16
1777399303920,1938126,-0.63,-0.63,0.54,-17.64,8.00,4.03
1777399303920,1938136,-0.63,-0.60,0.53,-18.49,11.78,4.15
1777399303920,1938146,-0.61,-0.60,0.52,-19.90,16.36,5.25
1777399303920,1938156,-0.62,-0.59,0.52,-21.61,20.26,4.58
1777399303920,1938166,-0.62,-0.58,0.51,-22.64,21.12,3.54
1777399303920,1938176,-0.60,-0.58,0.47,-22.95,19.90,3.48
1777399303921,1938186,-0.62,-0.60,0.48,-21.61,19.41,2.87
1777399303921,1938196,-0.62,-0.61,0.48,-18.07,17.15,1.59
1777399303921,1938206,-0.64,-0.61,0.48,-14.04,12.57,-0.24
1777399303921,1938216,-0.64,-0.61,0.47,-10.86,8.85,-2.87
1777399303921,1938226,-0.64,-0.60,0.48,-8.54,6.23,-5.92
1777399303921,1938236,-0.64,-0.59,0.49,-8.67,4.09,-8.18
1777399303921,1938246,-0.63,-0.58,0.48,-10.50,1.77,-9.22
1777399303921,1938256,-0.63,-0.57,0.47,-12.82,0.00,-9.40
1777399303921,1938266,-0.62,-0.57,0.46,-14.71,-0.49,-9.09
1777399303921,1938276,-0.61,-0.57,0.44,-15.56,-0.31,-8.00
1777399303922,1938286,-0.61,-0.57,0.43,-15.75,1.10,-6.71
1777399303922,1938296,-0.60,-0.58,0.43,-15.56,3.91,-5.43
1777399303922,1938306,-0.62,-0.57,0.44,-15.50,7.14,-3.54
1777399303922,1938326,-0.65,-0.58,0.46,-17.88,11.29,-2.08
1777399303922,1938346,-0.64,-0.59,0.41,-24.60,11.54,-1.71
1777399303922,1938366,-0.62,-0.62,0.37,-24.54,12.39,1.16
1777399303922,1938386,-0.63,-0.65,0.37,-15.63,16.36,1.40
1777399303922,1938396,-0.64,-0.65,0.38,-10.50,17.40,-0.18
1777399303922,1938406,-0.65,-0.64,0.39,-6.04,17.64,-2.26
1777399303922,1938416,-0.65,-0.63,0.41,-3.85,16.54,-4.46
1777399303923,1938426,-0.64,-0.63,0.43,-2.69,12.94,-6.53
1777399303923,1938436,-0.65,-0.62,0.42,-2.50,7.45,-7.87
1777399303923,1938446,-0.66,-0.60,0.42,-3.42,2.87,-8.24
1777399303923,1938456,-0.66,-0.61,0.40,-5.86,0.31,-8.18
1777399303923,1938466,-0.65,-0.62,0.38,-8.79,-0.79,-7.93
1777399303923,1938476,-0.65,-0.63,0.35,-10.13,-0.18,-7.57
1777399303923,1938486,-0.64,-0.63,0.34,-9.95,1.53,-6.84
1777399303923,1938496,-0.63,-0.63,0.33,-9.03,2.99,-5.43
1777399303923,1938506,-0.63,-0.63,0.33,-7.45,3.54,-3.91
1777399303924,1938516,-0.63,-0.63,0.33,-5.31,2.56,-2.62
1777399303924,1938526,-0.63,-0.62,0.32,-3.42,1.22,-2.20
1777399303924,1938536,-0.64,-0.62,0.32,-2.32,0.37,-2.38
1777399303924,1938546,-0.65,-0.62,0.33,-1.95,-0.31,-1.65
1777399303924,1938556,-0.66,-0.63,0.33,-2.20,-1.28,-0.55
1777399303924,1938566,-0.67,-0.64,0.32,-2.62,-2.44,-0.49
1777399303924,1938576,-0.66,-0.64,0.32,-2.62,-3.23,-0.67
1777399303924,1938586,-0.65,-0.65,0.31,-2.62,-4.03,-0.79
1777399303924,1938596,-0.65,-0.65,0.31,-2.56,-4.03,-0.24
1777399303924,1938606,-0.65,-0.64,0.30,-2.38,-2.93,0.92
1777399303924,1938616,-0.65,-0.64,0.30,-2.69,-1.46,1.71
1777399303925,1938626,-0.66,-0.65,0.31,-3.30,-0.12,2.08
1777399303925,1938636,-0.67,-0.66,0.32,-3.78,0.12,1.95
1777399303925,1938646,-0.69,-0.67,0.33,-3.36,-1.53,1.28
1777399303925,1938656,-0.69,-0.66,0.33,-2.81,-4.03,-0.85
1777399303925,1938676,-0.69,-0.66,0.32,-2.01,-5.13,-2.38
1777399303925,1938696,-0.70,-0.67,0.34,-1.28,-2.26,-4.64
1777399303925,1938716,-0.69,-0.67,0.34,-0.73,-4.52,-7.45
1777399303925,1938736,-0.70,-0.68,0.34,3.60,-9.16,-10.44
1777399303925,1938746,-0.69,-0.68,0.34,6.65,-11.11,-12.76
1777399303925,1938756,-0.69,-0.67,0.35,9.22,-12.39,-15.56
1777399303926,1938766,-0.69,-0.67,0.36,10.80,-13.85,-18.01
1777399303926,1938776,-0.69,-0.67,0.37,12.21,-16.36,-20.51
1777399303926,1938786,-0.68,-0.68,0.37,14.22,-20.32,-22.77
1777399303926,1938796,-0.67,-0.68,0.35,18.07,-24.48,-24.66
1777399303926,1938806,-0.64,-0.68,0.34,22.89,-25.88,-25.94
1777399303926,1938816,-0.63,-0.67,0.36,26.43,-25.21,-27.40
1777399303926,1938826,-0.63,-0.68,0.37,28.93,-25.94,-28.26
1777399303926,1938836,-0.64,-0.69,0.38,32.96,-29.66,-28.26
1777399303927,1938846,-0.65,-0.69,0.39,39.43,-35.89,-28.87
1777399303927,1938856,-0.64,-0.69,0.38,47.12,-45.29,-30.52
1777399303927,1938866,-0.63,-0.67,0.36,55.05,-55.66,-31.92
1777399303927,1938876,-0.62,-0.68,0.34,63.60,-64.33,-32.53
1777399303927,1938886,-0.60,-0.67,0.33,73.12,-71.72,-33.14
1777399303927,1938896,-0.59,-0.66,0.35,82.58,-76.23,-33.94
1777399303927,1938906,-0.56,-0.64,0.38,89.72,-77.15,-34.61
1777399303927,1938916,-0.54,-0.60,0.43,92.10,-76.11,-35.22
1777399303927,1938926,-0.52,-0.57,0.47,90.03,-75.32,-33.26
1777399303928,1938936,-0.52,-0.54,0.50,84.11,-76.17,-32.29
1777399303928,1938946,-0.50,-0.54,0.51,77.03,-78.49,-30.21
1777399303928,1938956,-0.49,-0.55,0.51,70.68,-78.67,-27.04
1777399303928,1938966,-0.48,-0.57,0.54,66.83,-76.11,-23.19
1777399303928,1938976,-0.46,-0.59,0.54,66.59,-73.85,-19.65
1777399303928,1938986,-0.46,-0.58,0.55,69.03,-71.53,-17.15
1777399303928,1938996,-0.47,-0.58,0.60,72.39,-67.87,-16.66
1777399303928,1939016,-0.48,-0.56,0.67,79.59,-67.08,-18.25
1777399303928,1939036,-0.43,-0.48,0.72,77.09,-67.75,-19.78
1777399303929,1939056,-0.35,-0.46,0.73,63.29,-56.70,-14.34
1777399303929,1939076,-0.37,-0.49,0.78,55.73,-39.67,-5.49
1777399303929,1939086,-0.38,-0.48,0.79,52.73,-34.73,-3.78
1777399303929,1939096,-0.40,-0.49,0.81,51.21,-32.41,-3.42
1777399303929,1939106,-0.41,-0.49,0.85,51.39,-31.31,-5.37
1777399303929,1939116,-0.41,-0.49,0.87,49.32,-33.94,-8.36
1777399303929,1939126,-0.41,-0.49,0.88,46.20,-40.65,-11.11
1777399303929,1939136,-0.39,-0.49,0.86,45.84,-49.19,-12.88
1777399303929,1939146,-0.36,-0.48,0.84,46.94,-55.79,-14.28
1777399303930,1939156,-0.34,-0.46,0.82,46.69,-58.72,-14.59
1777399303930,1939166,-0.32,-0.45,0.80,45.59,-57.13,-13.61
1777399303930,1939176,-0.30,-0.44,0.78,44.25,-50.78,-11.29
1777399303930,1939186,-0.30,-0.43,0.78,43.15,-41.26,-8.42
1777399303930,1939196,-0.31,-0.42,0.80,41.63,-30.88,-5.55
1777399303930,1939206,-0.32,-0.42,0.84,40.34,-23.86,-2.81
1777399303930,1939216,-0.33,-0.41,0.86,38.70,-21.67,-0.92
1777399303930,1939226,-0.33,-0.42,0.88,37.54,-23.50,1.22
1777399303930,1939236,-0.32,-0.41,0.87,36.74,-25.88,2.69
1777399303931,1939246,-0.31,-0.40,0.87,34.97,-27.22,3.60
1777399303931,1939256,-0.30,-0.39,0.86,33.08,-27.53,4.64
1777399303931,1939266,-0.28,-0.37,0.85,31.25,-26.12,6.47
1777399303931,1939276,-0.26,-0.36,0.83,29.91,-21.73,9.77
1777399303931,1939286,-0.27,-0.36,0.84,27.47,-13.55,13.24
1777399303931,1939296,-0.32,-0.36,0.87,23.80,-2.81,15.01
1777399303931,1939306,-0.36,-0.36,0.91,17.64,9.22,12.88
1777399303931,1939316,-0.38,-0.37,0.93,5.25,19.10,5.92
1777399303931,1939326,-0.37,-0.37,0.93,-8.79,24.35,-2.75
1777399303931,1939336,-0.33,-0.36,0.87,-18.07,25.82,-8.91
1777399303932,1939346,-0.31,-0.39,0.85,-21.24,26.86,-5.80
1777399303932,1939366,-0.35,-0.43,0.86,2.01,12.15,1.10
1777399303932,1939386,-0.34,-0.41,0.69,28.38,-0.18,4.33
1777399303932,1939406,-0.40,-0.51,0.75,34.24,21.67,2.44
1777399303932,1939426,-0.36,-0.40,0.89,25.94,23.07,-9.52
1777399303932,1939436,-0.41,-0.36,0.91,18.13,16.48,-12.08
1777399303932,1939446,-0.43,-0.33,0.87,11.72,5.55,-12.27
1777399303932,1939456,-0.41,-0.33,0.85,4.09,-2.50,-13.18
1777399303933,1939466,-0.43,-0.31,0.87,-6.16,-6.71,-15.26
1777399303933,1939476,-0.46,-0.35,0.87,-14.40,-14.83,-16.30
1777399303933,1939486,-0.44,-0.36,0.83,-12.02,-19.23,-15.01
1777399303933,1939496,-0.42,-0.34,0.82,-8.12,-17.82,-13.67
1777399303933,1939506,-0.43,-0.33,0.84,-5.80,-12.15,-11.66
1777399303933,1939516,-0.43,-0.34,0.87,-5.19,-8.85,-10.38
1777399303933,1939526,-0.40,-0.37,0.86,-3.97,-7.45,-9.52
1777399303933,1939536,-0.35,-0.37,0.83,-2.87,-5.31,-8.97
1777399303933,1939546,-0.33,-0.38,0.81,-2.93,-0.06,-7.20
1777399303933,1939556,-0.34,-0.40,0.79,-2.14,7.14,-6.04
1777399303934,1939566,-0.37,-0.36,0.80,0.85,15.44,-6.77
1777399303934,1939576,-0.37,-0.38,0.84,2.26,20.94,-7.87
1777399303934,1939586,-0.39,-0.38,0.88,3.60,22.77,-9.09
1777399303934,1939596,-0.39,-0.37,0.90,3.48,20.14,-10.62
1777399303934,1939606,-0.38,-0.36,0.89,0.73,15.20,-10.56
1777399303934,1939616,-0.36,-0.35,0.86,-2.20,10.99,-8.67
1777399303934,1939626,-0.36,-0.36,0.85,-4.33,9.03,-5.00
1777399303934,1939636,-0.38,-0.36,0.86,-6.65,6.41,-2.08
1777399303934,1939646,-0.37,-0.34,0.82,-8.91,2.93,-0.79
1777399303935,1939656,-0.38,-0.35,0.81,-10.99,1.65,0.79
1777399303935,1939666,-0.37,-0.36,0.77,-13.55,1.83,1.40
1777399303935,1939676,-0.39,-0.37,0.81,-16.05,2.32,0.43
1777399303935,1939686,-0.38,-0.38,0.80,-19.53,0.92,-1.40
1777399303935,1939696,-0.36,-0.39,0.77,-22.34,0.55,-3.78
1777399303935,1939716,-0.36,-0.41,0.77,-16.36,1.53,-4.88
1777399303935,1939736,-0.37,-0.41,0.79,-8.48,0.85,-6.53
1777399303935,1939756,-0.37,-0.40,0.80,-3.72,-0.24,-5.07
1777399303935,1939766,-0.39,-0.41,0.82,-2.93,-0.79,-3.60
1777399303936,1939776,-0.40,-0.41,0.83,-2.01,-3.48,-2.69
1777399303936,1939786,-0.41,-0.42,0.83,-1.10,-7.39,-2.62
1777399303936,1939796,-0.40,-0.41,0.82,0.12,-10.62,-2.93
1777399303936,1939806,-0.39,-0.40,0.80,0.67,-10.74,-2.38
1777399303936,1939816,-0.40,-0.41,0.80,0.24,-8.06,-1.46
1777399303936,1939826,-0.40,-0.41,0.81,-0.49,-4.46,-1.53
1777399303936,1939836,-0.40,-0.41,0.81,-1.40,-1.46,-2.14
1777399303936,1939846,-0.41,-0.41,0.81,-1.83,0.73,-2.44
1777399303936,1939856,-0.42,-0.41,0.81,-1.83,2.32,-2.75
1777399303936,1939866,-0.42,-0.41,0.82,-2.69,3.30,-3.11
1777399303937,1939876,-0.43,-0.41,0.83,-3.60,3.54,-3.36
1777399303937,1939886,-0.44,-0.42,0.83,-4.70,2.93,-3.48
1777399303937,1939896,-0.44,-0.41,0.83,-6.16,0.92,-4.39
1777399303937,1939906,-0.43,-0.42,0.81,-7.32,-1.34,-5.25
1777399303937,1939916,-0.43,-0.42,0.80,-8.24,-2.38,-5.92
1777399303937,1939926,-0.42,-0.42,0.79,-9.34,-2.38,-6.59
1777399303937,1939936,-0.43,-0.42,0.79,-10.68,-2.26,-7.69
1777399303937,1939946,-0.43,-0.42,0.78,-11.47,-1.95,-9.09
1777399303937,1939956,-0.42,-0.42,0.77,-12.70,-0.31,-10.74
1777399303938,1939966,-0.43,-0.42,0.78,-14.28,2.26,-11.90
1777399303938,1939976,-0.42,-0.40,0.77,-15.20,5.37,-12.82
1777399303938,1939986,-0.43,-0.39,0.76,-17.94,9.58,-13.55
1777399303938,1939996,-0.45,-0.40,0.77,-21.73,14.65,-14.22
1777399303938,1940006,-0.45,-0.41,0.77,-23.93,19.35,-15.56
1777399303938,1940016,-0.46,-0.41,0.79,-25.94,22.64,-17.76
1777399303938,1940026,-0.46,-0.39,0.79,-30.46,24.66,-21.00
1777399303938,1940036,-0.43,-0.37,0.77,-39.31,26.12,-26.31
1777399303938,1940056,-0.42,-0.41,0.73,-65.31,47.42,-24.60
1777399303939,1940076,-0.38,-0.40,0.73,-66.41,67.69,-14.22
1777399303939,1940096,-0.43,-0.41,0.70,-77.15,82.52,-1.89
1777399303939,1940116,-0.54,-0.58,0.67,-90.45,93.26,-3.91
1777399303939,1940126,-0.50,-0.60,0.69,-80.99,95.89,-8.73
1777399303939,1940136,-0.50,-0.57,0.72,-65.43,93.63,-10.62
1777399303939,1940146,-0.49,-0.55,0.75,-50.72,86.24,-8.30
1777399303939,1940156,-0.51,-0.52,0.72,-42.79,76.17,-5.62
1777399303939,1940166,-0.50,-0.50,0.65,-41.08,67.81,-3.11
1777399303939,1940176,-0.47,-0.51,0.55,-39.55,66.28,0.24
1777399303939,1940186,-0.43,-0.52,0.47,-33.33,74.83,6.53
1777399303940,1940196,-0.45,-0.55,0.47,-25.57,91.92,14.40
1777399303940,1940206,-0.51,-0.55,0.53,-22.09,110.66,21.42
1777399303940,1940216,-0.59,-0.57,0.61,-25.51,122.25,25.21
1777399303940,1940226,-0.63,-0.63,0.64,-32.29,121.95,27.04
1777399303940,1940236,-0.66,-0.66,0.62,-36.87,111.69,26.92
1777399303940,1940246,-0.68,-0.67,0.54,-36.50,96.37,26.06
1777399303940,1940256,-0.68,-0.69,0.43,-30.46,82.46,24.41
1777399303940,1940266,-0.76,-0.70,0.36,-19.59,75.32,21.67
1777399303941,1940276,-0.63,-0.88,0.29,-6.90,67.50,18.31
1777399303941,1940286,-0.76,-0.65,0.33,4.76,65.98,3.91
1777399303941,1940296,-0.68,-0.64,0.33,8.12,72.57,2.62
1777399303941,1940306,-0.69,-0.65,0.33,7.20,76.17,7.32
1777399303941,1940316,-0.75,-0.64,0.38,1.89,77.39,11.11
1777399303941,1940326,-0.78,-0.67,0.35,-7.14,73.67,11.96
1777399303941,1940336,-0.81,-0.71,0.33,-17.40,69.03,10.07
1777399303941,1940346,-0.81,-0.81,0.32,-25.51,62.56,5.92
1777399303941,1940356,-0.86,-0.72,0.26,-29.30,55.85,-1.89
1777399303941,1940366,-0.85,-0.70,0.26,-17.52,47.91,-2.50
1777399303942,1940376,-0.81,-0.72,0.18,-7.26,39.12,-1.83
1777399303942,1940386,-0.79,-0.75,0.13,-3.42,37.78,-8.73
1777399303942,1940406,-0.74,-0.63,0.12,19.35,47.73,-4.58
1777399303942,1940426,-0.81,-0.56,0.16,11.11,45.10,-3.42
1777399303942,1940446,-0.82,-0.58,0.18,1.28,37.96,-0.85
1777399303942,1940456,-0.79,-0.60,0.16,-1.77,31.07,-1.16
1777399303942,1940466,-0.76,-0.61,0.18,-3.11,23.80,-1.16
1777399303942,1940476,-0.77,-0.59,0.20,-6.47,17.09,-1.16
1777399303942,1940486,-0.77,-0.57,0.17,-10.25,9.46,-1.22
1777399303942,1940496,-0.75,-0.58,0.12,-8.73,5.31,0.37
1777399303943,1940506,-0.75,-0.61,0.14,-9.89,8.00,0.92
1777399303943,1940516,-0.75,-0.59,0.14,-14.89,13.92,-0.49
1777399303943,1940526,-0.78,-0.58,0.18,-22.28,20.32,-1.28
1777399303943,1940536,-0.80,-0.60,0.20,-29.17,22.58,-1.40
1777399303943,1940546,-0.81,-0.62,0.22,-33.20,19.96,-1.83
1777399303943,1940556,-0.82,-0.64,0.21,-33.45,13.18,-2.93
1777399303943,1940566,-0.80,-0.63,0.18,-29.48,4.82,-4.21
1777399303943,1940576,-0.78,-0.62,0.17,-24.11,-2.32,-4.33
1777399303943,1940586,-0.77,-0.61,0.15,-18.92,-7.81,-3.97
1777399303943,1940596,-0.75,-0.60,0.13,-15.26,-10.38,-3.91
1777399303944,1940606,-0.73,-0.58,0.09,-13.61,-10.31,-3.17
1777399303944,1940616,-0.72,-0.57,0.08,-15.63,-6.41,-2.50
1777399303944,1940626,-0.73,-0.57,0.07,-18.98,-0.37,-1.46
1777399303944,1940636,-0.73,-0.57,0.08,-21.79,5.74,-0.67
1777399303944,1940646,-0.73,-0.56,0.09,-24.41,9.52,-0.98
1777399303944,1940656,-0.74,-0.57,0.09,-26.06,11.41,-1.04
1777399303944,1940666,-0.76,-0.57,0.09,-27.83,11.84,-1.28
1777399303944,1940676,-0.76,-0.58,0.09,-28.32,10.50,-1.46
1777399303944,1940686,-0.77,-0.58,0.10,-26.98,7.20,-2.20
1777399303945,1940696,-0.76,-0.57,0.09,-24.66,2.62,-3.23
1777399303945,1940706,-0.75,-0.56,0.07,-22.58,-0.85,-3.42
1777399303945,1940716,-0.75,-0.56,0.05,-21.85,-1.89,-3.23
1777399303945,1940726,-0.75,-0.57,0.04,-21.55,0.61,-3.23
1777399303945,1940746,-0.78,-0.62,0.07,-16.11,12.63,-3.78
1777399303945,1940766,-0.80,-0.57,0.10,-15.14,9.16,-6.16
1777399303945,1940786,-0.80,-0.59,0.09,-16.11,2.14,-3.11
1777399303945,1940806,-0.78,-0.56,0.05,-16.60,-1.04,-3.78
1777399303945,1940816,-0.77,-0.54,0.05,-19.04,1.10,-3.85
1777399303946,1940826,-0.76,-0.54,0.04,-22.46,3.85,-3.66
1777399303946,1940836,-0.74,-0.54,0.04,-27.22,6.90,-2.75
1777399303946,1940846,-0.77,-0.56,0.04,-32.10,10.19,-1.71
1777399303946,1940856,-0.77,-0.58,0.04,-33.08,12.82,-1.10
1777399303946,1940866,-0.79,-0.59,0.03,-30.33,14.83,-0.98
1777399303946,1940876,-0.80,-0.59,0.03,-26.67,16.42,-1.83
1777399303946,1940886,-0.80,-0.59,0.04,-24.23,17.09,-2.56
1777399303946,1940896,-0.82,-0.59,0.03,-22.16,16.48,-2.62
1777399303946,1940906,-0.82,-0.58,0.02,-19.53,13.37,-3.11
1777399303946,1940916,-0.82,-0.59,0.03,-16.60,8.06,-3.72
1777399303947,1940926,-0.81,-0.60,0.01,-13.92,1.71,-5.00
1777399303947,1940936,-0.79,-0.58,-0.00,-10.80,-3.23,-6.59
1777399303947,1940946,-0.80,-0.57,-0.01,-8.61,-6.04,-6.65
1777399303947,1940956,-0.80,-0.57,-0.03,-7.63,-6.71,-6.35
1777399303947,1940966,-0.79,-0.57,-0.04,-7.51,-4.46,-5.49
1777399303947,1940976,-0.79,-0.58,-0.03,-8.06,0.43,-4.58
1777399303947,1940986,-0.80,-0.59,-0.01,-8.24,6.59,-3.66
1777399303947,1940996,-0.80,-0.60,0.02,-8.54,11.11,-3.30
1777399303947,1941006,-0.80,-0.61,0.05,-9.58,11.72,-3.66
1777399303948,1941016,-0.79,-0.61,0.05,-10.56,9.46,-4.52
1777399303948,1941026,-0.80,-0.59,0.04,-11.72,5.55,-5.00
1777399303948,1941036,-0.81,-0.59,0.02,-12.57,1.77,-4.09
1777399303948,1941046,-0.81,-0.59,-0.00,-13.00,-1.04,-3.91
1777399303948,1941056,-0.81,-0.59,-0.03,-12.76,-2.44,-5.25
1777399303948,1941066,-0.79,-0.58,-0.05,-12.02,-1.28,-6.47
1777399303948,1941076,-0.78,-0.58,-0.06,-11.66,2.14,-4.94
1777399303948,1941096,-0.79,-0.58,-0.07,-13.06,14.34,-1.89
1777399303948,1941116,-0.84,-0.60,-0.06,-12.51,16.97,-0.79
1777399303949,1941136,-0.85,-0.61,-0.06,-10.01,12.88,-1.40
1777399303949,1941156,-0.83,-0.61,-0.09,-5.98,7.32,-3.66
1777399303949,1941166,-0.83,-0.60,-0.11,-2.87,5.62,-4.21
1777399303949,1941176,-0.84,-0.59,-0.12,1.40,5.68,-4.88
1777399303949,1941186,-0.84,-0.57,-0.10,5.62,5.98,-5.43
1777399303949,1941196,-0.83,-0.56,-0.09,8.42,5.00,-6.47
1777399303949,1941206,-0.81,-0.54,-0.09,9.46,2.81,-7.51
1777399303949,1941216,-0.80,-0.52,-0.10,8.97,0.37,-7.75
1777399303950,1941226,-0.78,-0.53,-0.11,8.36,-1.04,-7.93
1777399303950,1941236,-0.77,-0.53,-0.12,8.36,-1.65,-7.87
1777399303950,1941246,-0.75,-0.53,-0.12,8.18,-1.28,-7.57
1777399303950,1941256,-0.73,-0.53,-0.13,8.30,-0.18,-6.90
1777399303950,1941266,-0.71,-0.53,-0.13,8.48,1.40,-6.10
1777399303950,1941276,-0.71,-0.53,-0.14,8.54,2.99,-5.00
1777399303950,1941286,-0.70,-0.53,-0.14,8.85,4.76,-3.17
1777399303950,1941296,-0.70,-0.54,-0.13,9.09,6.04,-1.46
1777399303950,1941306,-0.70,-0.53,-0.12,9.34,5.92,0.00
1777399303950,1941316,-0.71,-0.54,-0.10,9.22,4.58,1.40
1777399303951,1941326,-0.72,-0.55,-0.09,8.73,2.01,2.08
1777399303951,1941336,-0.73,-0.56,-0.09,8.42,-2.14,1.77
1777399303951,1941346,-0.72,-0.57,-0.09,9.40,-6.77,0.79
1777399303951,1941356,-0.72,-0.58,-0.08,10.44,-10.38,0.31
1777399303951,1941366,-0.73,-0.59,-0.07,10.50,-14.16,0.18
1777399303951,1941376,-0.72,-0.59,-0.08,10.50,-18.80,0.31
1777399303951,1941386,-0.72,-0.60,-0.10,11.23,-22.83,1.04
1777399303951,1941396,-0.73,-0.59,-0.12,13.00,-24.11,1.59
1777399303951,1941406,-0.74,-0.59,-0.11,14.65,-23.01,2.01
1777399303952,1941416,-0.77,-0.58,-0.09,15.26,-20.69,2.69
1777399303952,1941436,-0.81,-0.59,-0.05,11.66,-21.42,3.05
1777399303952,1941456,-0.83,-0.60,-0.05,7.45,-22.89,3.23
1777399303952,1941476,-0.84,-0.61,-0.04,5.49,-21.91,3.91
1777399303952,1941496,-0.85,-0.60,-0.04,7.69,-19.96,4.52
1777399303952,1941506,-0.87,-0.59,-0.04,8.42,-16.97,5.31
1777399303952,1941516,-0.87,-0.58,-0.02,7.93,-12.94,5.68
1777399303952,1941526,-0.87,-0.56,-0.03,6.41,-8.12,5.62
1777399303952,1941536,-0.87,-0.55,-0.03,3.97,-2.38,5.19
1777399303952,1941546,-0.86,-0.54,-0.04,1.22,3.23,4.27
1777399303953,1941556,-0.83,-0.52,-0.05,-0.98,8.36,3.48
1777399303953,1941566,-0.82,-0.52,-0.05,-2.44,12.27,3.23
1777399303953,1941576,-0.80,-0.51,-0.05,-3.11,13.61,2.56
1777399303953,1941586,-0.78,-0.51,-0.05,-2.81,11.54,1.22
1777399303953,1941596,-0.76,-0.50,-0.07,-1.59,7.51,0.00
1777399303953,1941606,-0.75,-0.49,-0.09,0.43,3.60,-0.61
1777399303953,1941616,-0.74,-0.49,-0.10,3.05,0.73,-1.04
1777399303953,1941626,-0.75,-0.48,-0.11,6.23,-0.67,-1.10
1777399303953,1941636,-0.76,-0.48,-0.10,8.79,-0.67,-0.85
1777399303954,1941646,-0.78,-0.49,-0.09,10.38,-0.43,-0.24
1777399303954,1941656,-0.80,-0.50,-0.07,11.54,-0.92,0.00
1777399303954,1941666,-0.81,-0.51,-0.06,12.57,-2.56,0.06
1777399303954,1941676,-0.82,-0.51,-0.05,13.12,-4.82,0.31
1777399303954,1941686,-0.82,-0.52,-0.04,12.88,-7.26,0.49
1777399303954,1941696,-0.83,-0.53,-0.04,11.60,-9.40,0.49
1777399303954,1941706,-0.83,-0.55,-0.05,10.50,-11.05,0.43
1777399303954,1941716,-0.85,-0.57,-0.05,10.31,-12.57,0.55
1777399303954,1941726,-0.85,-0.58,-0.04,10.01,-13.92,0.24
1777399303954,1941736,-0.86,-0.59,-0.04,9.09,-14.65,-0.18
1777399303955,1941746,-0.88,-0.59,-0.04,7.69,-15.14,-0.73
1777399303955,1941756,-0.88,-0.59,-0.04,6.16,-15.32,-1.65
1777399303955,1941766,-0.87,-0.58,-0.05,4.64,-14.22,-3.97
1777399303955,1941786,-0.83,-0.57,-0.06,-1.59,-3.91,-5.43
1777399303955,1941806,-0.81,-0.57,-0.04,-5.13,-1.22,-6.71
1777399303955,1941826,-0.78,-0.56,-0.04,-5.80,-4.46,-7.20
1777399303955,1941846,-0.79,-0.55,-0.05,-4.33,-6.29,-6.16
1777399303955,1941856,-0.80,-0.54,-0.04,-3.72,-5.74,-5.55
1777399303955,1941866,-0.82,-0.54,-0.04,-3.78,-5.37,-5.00
1777399303956,1941876,-0.83,-0.53,-0.03,-3.91,-5.37,-4.88
1777399303956,1941886,-0.84,-0.52,-0.04,-3.97,-5.74,-5.07
1777399303956,1941896,-0.85,-0.52,-0.04,-3.48,-5.74,-4.82
1777399303956,1941906,-0.87,-0.52,-0.03,-2.26,-5.74,-4.94
1777399303956,1941916,-0.87,-0.51,-0.01,-1.04,-6.84,-6.04
1777399303956,1941926,-0.86,-0.51,-0.01,-0.24,-9.03,-7.32
1777399303956,1941936,-0.84,-0.50,-0.02,0.12,-10.86,-8.18
1777399303956,1941946,-0.82,-0.50,-0.03,0.06,-11.66,-8.06
1777399303956,1941956,-0.80,-0.49,-0.03,0.06,-11.41,-7.26
1777399303957,1941966,-0.79,-0.49,-0.04,-0.43,-9.77,-6.53
1777399303957,1941976,-0.78,-0.49,-0.03,-1.53,-7.57,-5.55
1777399303957,1941986,-0.79,-0.49,-0.03,-2.50,-6.16,-3.72
1777399303957,1941996,-0.81,-0.49,-0.03,-2.93,-5.68,-2.20
1777399303957,1942006,-0.81,-0.50,-0.03,-2.87,-5.80,-1.65
1777399303957,1942016,-0.81,-0.51,-0.04,-2.75,-6.41,-1.83
1777399303957,1942026,-0.82,-0.51,-0.04,-2.56,-7.02,-1.65
1777399303957,1942036,-0.82,-0.51,-0.05,-2.38,-7.14,-1.10
1777399303957,1942046,-0.83,-0.52,-0.05,-2.62,-6.84,-1.04
1777399303957,1942056,-0.83,-0.52,-0.06,-2.69,-6.71,-1.28
1777399303958,1942066,-0.84,-0.52,-0.06,-2.14,-6.77,-1.46
1777399303958,1942076,-0.84,-0.53,-0.06,-1.16,-6.71,-1.65
1777399303958,1942086,-0.84,-0.53,-0.06,-0.24,-6.77,-2.14
1777399303958,1942096,-0.85,-0.54,-0.06,0.85,-7.02,-2.44
1777399303958,1942106,-0.84,-0.55,-0.06,2.14,-6.96,-2.99
1777399303958,1942126,-0.83,-0.56,-0.06,5.00,-8.54,-6.35
1777399303958,1942146,-0.84,-0.56,-0.05,5.86,-8.97,-7.81
1777399303958,1942166,-0.86,-0.54,-0.05,5.98,-9.64,-8.61
1777399303958,1942186,-0.87,-0.54,-0.06,4.76,-10.01,-10.44
1777399303958,1942196,-0.87,-0.53,-0.06,4.15,-10.62,-12.57
1777399303959,1942206,-0.86,-0.53,-0.07,3.54,-11.84,-14.71
1777399303959,1942216,-0.85,-0.52,-0.08,3.42,-13.18,-17.15
1777399303959,1942226,-0.84,-0.50,-0.09,3.30,-14.40,-20.02
1777399303959,1942236,-0.82,-0.47,-0.10,2.87,-15.56,-22.64
1777399303959,1942246,-0.81,-0.45,-0.09,0.31,-16.24,-26.18
1777399303959,1942256,-0.78,-0.45,-0.09,-3.60,-17.40,-31.19
1777399303965,1942266,-0.75,-0.46,-0.08,-7.81,-19.10,-36.93
1777399303975,1942276,-0.70,-0.46,-0.08,-7.26,-21.85,-38.51
1777399303985,1942286,-0.69,-0.49,-0.08,-2.93,-25.09,-36.68
1777399303995,1942296,-0.68,-0.45,-0.02,2.08,-29.30,-38.33
1777399304005,1942306,-0.67,-0.41,-0.00,6.41,-34.55,-39.49
1777399304015,1942316,-0.72,-0.44,0.02,7.51,-39.92,-40.65
1777399304025,1942326,-0.70,-0.46,0.00,8.54,-44.37,-44.86
1777399304035,1942336,-0.69,-0.45,0.07,11.78,-45.41,-47.91
1777399304045,1942346,-0.66,-0.39,0.04,11.96,-48.34,-50.54
1777399304055,1942356,-0.67,-0.42,0.07,11.17,-48.22,-49.74
1777399304065,1942366,-0.67,-0.45,0.11,11.90,-47.30,-49.62
1777399304075,1942376,-0.60,-0.53,0.09,10.38,-46.33,-53.10
1777399304085,1942386,-0.58,-0.59,0.12,10.99,-42.54,-53.71
1777399304095,1942396,-0.56,-0.60,0.15,14.22,-41.63,-50.72
1777399304105,1942406,-0.56,-0.53,0.20,10.62,-42.79,-48.22
1777399304115,1942416,-0.58,-0.49,0.16,-3.85,-49.74,-45.41
1777399304125,1942426,-0.65,-0.58,0.09,-20.63,-56.09,-39.92
1777399304135,1942436,-0.83,-0.68,0.06,-32.10,-60.73,-33.39
1777399304145,1942446,-1.14,-0.81,0.03,-41.69,-68.73,-28.20
1777399304155,1942456,-1.43,-1.27,-0.02,-57.01,-117.55,-42.97
1777399304175,1942476,-1.29,-3.16,-0.82,-65.92,-202.58,-79.41
1777399304195,1942496,-2.37,-4.00,-1.17,-19.10,-205.32,-110.11
1777399304215,1942516,-3.50,-4.00,1.41,-92.41,-102.42,-143.98
1777399304236,1942536,-2.34,-2.94,3.29,-394.84,42.60,-144.96
1777399304245,1942546,-1.70,-1.72,3.21,-617.37,131.90,-109.50
1777399304255,1942556,-1.17,-1.09,3.14,-753.36,203.61,-53.47
1777399304265,1942566,-0.56,-0.43,3.02,-768.07,207.09,-35.16
1777399304275,1942576,0.05,0.03,2.69,-718.75,136.78,-41.08
1777399304285,1942586,0.25,0.57,2.75,-617.92,32.41,-47.97
1777399304295,1942596,0.94,1.34,2.51,-479.68,-91.06,-55.85
1777399304305,1942606,1.63,1.67,1.72,-360.72,-167.66,-63.66
1777399304316,1942616,2.31,2.05,1.11,-277.34,-135.56,-53.34
1777399304325,1942626,2.37,2.17,1.31,-214.17,-40.89,-20.02
1777399304337,1942636,1.90,2.29,1.47,-151.12,18.86,22.77
1777399304345,1942646,1.11,2.28,1.63,-88.20,23.93,80.81
1777399304355,1942656,0.38,2.09,1.75,-32.17,-3.91,140.56
1777399304365,1942666,-0.32,1.86,1.66,1.77,-33.20,171.75
1777399304375,1942676,-0.87,1.68,1.41,9.09,-42.24,156.37
1777399304385,1942686,-1.01,1.30,1.31,-2.81,-32.78,107.85
1777399304395,1942696,-0.95,1.12,0.94,-10.31,-30.88,55.79
1777399304405,1942706,-0.86,1.06,0.62,-15.14,-27.95,29.97
1777399304418,1942716,-0.89,0.89,0.23,-20.02,-26.00,27.59
1777399304425,1942726,-0.91,0.71,-0.11,-25.94,-20.14,26.43
1777399304435,1942736,-0.92,0.56,-0.30,-23.56,-6.23,16.36
1777399304445,1942746,-0.88,0.39,-0.42,-11.29,8.24,1.22
1777399304455,1942756,-0.86,0.18,-0.50,10.50,19.04,-14.34
1777399304465,1942766,-0.82,-0.01,-0.48,37.78,26.37,-33.39
1777399304478,1942776,-0.78,-0.12,-0.49,63.60,21.97,-54.02
1777399304485,1942786,-0.74,-0.24,-0.57,79.90,8.79,-69.03
1777399304495,1942796,-0.67,-0.35,-0.68,86.30,-3.05,-93.69
1777399304526,1942816,-0.57,-0.56,-0.81,106.63,-9.34,-61.10
1777399304535,1942836,-0.55,-0.71,-0.89,126.46,13.79,-23.01
1777399304555,1942856,-0.68,-1.00,-0.58,133.42,34.79,-25.45
1777399304575,1942876,-0.51,-1.14,-0.54,132.87,-36.80,-55.24
1777399304585,1942886,-0.43,-1.11,-0.54,130.98,-72.57,-49.99
1777399304595,1942896,-0.29,-1.37,-0.93,124.02,-73.43,-29.30
1777399304605,1942906,-0.46,-0.97,-0.93,126.34,-25.76,-20.57
1777399304615,1942916,-0.61,-0.76,-0.63,133.73,31.68,1.16
1777399304625,1942926,-0.74,-0.80,-0.52,128.66,62.50,24.78
1777399304635,1942936,-0.87,-0.87,-0.45,118.29,74.95,35.71
1777399304645,1942946,-0.88,-0.96,-0.29,107.73,75.81,31.31
1777399304655,1942956,-0.86,-1.00,-0.20,97.96,56.40,10.99
1777399304665,1942966,-0.73,-0.96,-0.23,90.39,19.65,-16.05
1777399304675,1942976,-0.51,-0.93,-0.29,87.10,-16.17,-40.77
1777399304685,1942986,-0.32,-0.86,-0.37,91.06,-41.87,-58.53
1777399304695,1942996,-0.18,-0.73,-0.42,99.30,-53.83,-64.58
1777399304705,1943006,-0.10,-0.63,-0.40,106.57,-52.73,-57.98
1777399304715,1943016,-0.06,-0.59,-0.39,109.86,-42.97,-43.27
1777399304725,1943026,-0.26,-0.59,-0.22,109.74,-30.94,-28.87
1777399304735,1943036,-0.22,-0.57,-0.31,107.85,-24.90,-20.02
1777399304745,1943046,-0.31,-0.57,-0.22,97.47,-11.66,-19.23
1777399304755,1943056,-0.36,-0.54,-0.19,86.73,-6.47,-21.42
1777399304765,1943066,-0.35,-0.55,-0.20,77.82,-13.18,-18.74
1777399304775,1943076,-0.32,-0.58,-0.27,73.18,-26.06,-15.26
