host_time_ms,arduino_time_ms,ax,ay,az,gx,gy,gz
1777399357966,1989286,-0.74,-1.05,-0.04,90.94,-32.17,-0.98
1777399357967,1989296,-0.71,-1.04,-0.06,89.29,-32.23,-2.14
1777399357967,1989306,-0.72,-1.03,-0.04,87.28,-27.71,-2.99
1777399357967,1989316,-0.74,-1.03,-0.01,84.59,-25.15,-3.66
1777399357967,1989326,-0.77,-1.04,0.03,81.67,-26.06,-4.52
1777399357968,1989336,-0.78,-1.04,0.04,76.90,-28.87,-7.20
1777399357968,1989346,-0.75,-1.03,0.04,70.50,-30.76,-10.31
1777399357968,1989356,-0.74,-1.02,0.05,63.23,-31.37,-10.74
1777399357968,1989366,-0.73,-1.01,0.07,57.86,-30.21,-9.83
1777399357969,1989376,-0.72,-0.99,0.08,53.59,-28.50,-9.40
1777399357969,1989386,-0.70,-0.97,0.10,49.87,-25.94,-10.13
1777399357969,1989396,-0.70,-0.95,0.13,46.33,-23.44,-10.50
1777399357969,1989406,-0.71,-0.93,0.16,42.30,-20.75,-10.56
1777399357969,1989416,-0.74,-0.90,0.20,37.72,-18.25,-10.25
1777399357970,1989426,-0.75,-0.88,0.22,30.88,-17.15,-7.75
1777399357970,1989446,-0.75,-0.86,0.21,4.64,-7.45,-6.90
1777399357970,1989466,-0.72,-0.84,0.20,5.98,3.48,-12.02
1777399357971,1989486,-0.70,-0.82,0.22,4.76,2.32,-15.93
1777399357971,1989506,-0.64,-0.78,0.23,5.25,-5.25,-19.90
1777399357971,1989516,-0.61,-0.76,0.22,3.85,-9.58,-20.08
1777399357972,1989526,-0.61,-0.75,0.21,2.75,-12.70,-19.23
1777399357972,1989536,-0.61,-0.75,0.20,2.44,-13.98,-18.74
1777399357972,1989546,-0.60,-0.76,0.19,3.60,-14.40,-19.59
1777399357973,1989556,-0.59,-0.76,0.19,5.92,-14.59,-20.51
1777399357973,1989566,-0.58,-0.76,0.21,8.97,-14.89,-21.00
1777399357973,1989576,-0.56,-0.75,0.23,9.89,-17.21,-20.94
1777399357973,1989586,-0.52,-0.74,0.21,7.93,-21.24,-19.10
1777399357973,1989596,-0.50,-0.73,0.20,5.68,-22.83,-16.11
1777399357974,1989606,-0.48,-0.73,0.20,3.91,-21.73,-12.33
1777399357974,1989616,-0.49,-0.73,0.21,1.71,-19.23,-8.24
1777399357974,1989626,-0.49,-0.73,0.21,-1.16,-17.46,-3.91
1777399357974,1989636,-0.50,-0.73,0.21,-3.72,-16.54,-0.12
1777399357975,1989646,-0.51,-0.75,0.21,-5.80,-16.66,3.17
1777399357975,1989656,-0.51,-0.76,0.21,-6.96,-17.58,5.31
1777399357975,1989666,-0.52,-0.76,0.21,-8.06,-19.53,6.96
1777399357975,1989676,-0.53,-0.77,0.23,-8.06,-22.09,7.81
1777399357976,1989686,-0.54,-0.76,0.26,-8.06,-25.15,7.26
1777399357976,1989696,-0.56,-0.77,0.27,-8.67,-30.58,6.41
1777399357976,1989706,-0.56,-0.76,0.28,-8.36,-35.71,5.13
1777399357976,1989716,-0.54,-0.74,0.28,-7.63,-39.49,4.58
1777399357977,1989726,-0.53,-0.74,0.29,-6.84,-40.71,5.80
1777399357977,1989736,-0.53,-0.74,0.30,-6.04,-39.12,7.51
1777399357977,1989746,-0.53,-0.75,0.30,-5.13,-35.95,8.54
1777399357977,1989756,-0.53,-0.76,0.29,-3.54,-32.29,9.46
1777399357978,1989766,-0.55,-0.77,0.30,-0.43,-29.05,11.05
1777399357978,1989776,-0.57,-0.78,0.32,3.72,-26.49,13.31
1777399357978,1989796,-0.58,-0.76,0.38,3.91,-21.97,14.89
1777399357978,1989816,-0.55,-0.71,0.41,-7.32,-19.23,19.35
1777399357978,1989836,-0.56,-0.71,0.32,-18.98,-13.00,27.71
1777399357979,1989846,-0.58,-0.71,0.28,-19.17,-4.88,30.76
1777399357979,1989856,-0.61,-0.70,0.27,-17.21,4.52,32.23
1777399357979,1989866,-0.66,-0.70,0.27,-14.22,10.80,32.78
1777399357979,1989876,-0.73,-0.70,0.28,-9.95,14.16,30.15
1777399357979,1989886,-0.76,-0.70,0.31,-5.19,13.92,24.23
1777399357980,1989896,-0.77,-0.69,0.35,-2.08,9.09,17.70
1777399357980,1989906,-0.79,-0.68,0.36,-2.62,0.79,11.11
1777399357980,1989916,-0.77,-0.68,0.35,-4.82,-7.87,4.33
1777399357980,1989926,-0.74,-0.66,0.33,-6.35,-14.40,-0.98
1777399357981,1989936,-0.71,-0.64,0.31,-7.69,-17.88,-2.87
1777399357981,1989946,-0.68,-0.63,0.29,-8.30,-18.01,-1.83
1777399357981,1989956,-0.66,-0.63,0.28,-7.45,-14.59,0.24
1777399357981,1989966,-0.66,-0.62,0.28,-5.62,-8.61,2.56
1777399357981,1989976,-0.67,-0.63,0.29,-3.85,-1.59,4.88
1777399357981,1989986,-0.67,-0.64,0.30,-1.22,5.13,6.16
1777399357982,1989996,-0.70,-0.65,0.32,2.01,9.16,7.14
1777399357982,1990006,-0.72,-0.66,0.36,4.88,8.61,7.08
1777399357982,1990016,-0.74,-0.66,0.39,5.68,3.17,5.25
1777399357982,1990026,-0.75,-0.65,0.39,4.33,-5.07,2.26
1777399357983,1990036,-0.73,-0.65,0.37,1.53,-13.37,-0.85
1777399357983,1990046,-0.70,-0.64,0.34,-0.85,-19.59,-2.38
1777399357983,1990056,-0.68,-0.63,0.32,-1.59,-21.97,-1.83
1777399357983,1990066,-0.66,-0.63,0.31,-1.28,-20.75,0.18
1777399357983,1990076,-0.65,-0.63,0.31,-1.40,-18.07,2.44
1777399357983,1990086,-0.64,-0.64,0.30,-2.08,-15.50,4.58
1777399357984,1990096,-0.63,-0.63,0.29,-2.62,-13.24,7.45
1777399357984,1990106,-0.62,-0.63,0.28,-2.81,-10.01,10.93
1777399357984,1990116,-0.63,-0.64,0.27,-2.50,-5.43,16.60
1777399357984,1990136,-0.67,-0.64,0.31,-2.75,1.16,19.29
1777399357984,1990156,-0.70,-0.65,0.31,-7.75,-4.58,16.72
1777399357985,1990176,-0.68,-0.64,0.28,-9.95,-9.22,16.78
1777399357985,1990196,-0.67,-0.64,0.28,-10.31,-11.47,18.13
1777399357985,1990206,-0.67,-0.63,0.27,-10.93,-12.82,20.26
1777399357985,1990216,-0.68,-0.63,0.26,-10.93,-13.49,22.71
1777399357986,1990226,-0.69,-0.64,0.25,-10.62,-12.39,23.38
1777399357986,1990236,-0.70,-0.64,0.26,-9.83,-10.19,22.95
1777399357986,1990246,-0.71,-0.63,0.27,-9.09,-8.24,22.89
1777399357986,1990256,-0.74,-0.64,0.27,-9.28,-6.53,22.28
1777399357986,1990266,-0.75,-0.64,0.27,-9.16,-4.82,20.26
1777399357987,1990276,-0.75,-0.64,0.28,-8.54,-4.33,18.01
1777399357987,1990286,-0.76,-0.63,0.29,-8.30,-5.74,16.48
1777399357987,1990296,-0.77,-0.63,0.29,-8.48,-7.39,15.14
1777399357987,1990306,-0.77,-0.63,0.29,-9.22,-8.79,13.49
1777399357987,1990316,-0.76,-0.62,0.29,-10.44,-10.13,12.02
1777399357987,1990326,-0.76,-0.61,0.29,-11.96,-10.31,11.05
1777399357988,1990336,-0.77,-0.61,0.29,-13.55,-10.31,10.38
1777399357988,1990346,-0.76,-0.61,0.28,-14.77,-10.99,10.01
1777399357988,1990356,-0.76,-0.61,0.27,-15.14,-11.47,10.13
1777399357988,1990366,-0.75,-0.60,0.27,-15.20,-11.47,9.83
1777399357988,1990376,-0.75,-0.60,0.26,-15.14,-11.05,9.28
1777399357988,1990386,-0.75,-0.60,0.26,-14.83,-10.62,9.58
1777399357989,1990396,-0.74,-0.59,0.26,-14.34,-10.56,10.31
1777399357989,1990406,-0.75,-0.59,0.25,-14.10,-10.38,10.56
1777399357989,1990416,-0.76,-0.58,0.26,-13.31,-10.13,10.13
1777399357989,1990426,-0.75,-0.57,0.26,-12.57,-10.44,9.95
1777399357989,1990436,-0.75,-0.57,0.27,-12.21,-11.29,10.38
1777399357989,1990446,-0.75,-0.56,0.27,-12.51,-13.24,10.62
1777399357990,1990456,-0.75,-0.57,0.26,-13.12,-15.26,10.13
1777399357990,1990466,-0.73,-0.56,0.25,-13.18,-17.15,9.89
1777399357990,1990486,-0.72,-0.56,0.23,-10.99,-15.26,7.45
1777399357990,1990506,-0.74,-0.55,0.26,-6.29,-11.84,8.73
1777399357990,1990526,-0.75,-0.55,0.28,-8.36,-10.99,11.17
1777399357991,1990536,-0.75,-0.55,0.28,-10.44,-10.86,11.35
1777399357991,1990546,-0.74,-0.54,0.27,-12.39,-11.35,11.47
1777399357991,1990556,-0.73,-0.54,0.25,-13.92,-12.63,12.27
1777399357991,1990566,-0.72,-0.54,0.24,-14.65,-14.22,13.43
1777399357991,1990576,-0.72,-0.54,0.23,-14.59,-16.48,14.34
1777399357992,1990586,-0.72,-0.55,0.22,-13.79,-19.23,14.71
1777399357992,1990596,-0.72,-0.56,0.21,-12.15,-22.52,14.95
1777399357992,1990606,-0.73,-0.56,0.21,-9.16,-25.21,14.65
1777399357992,1990616,-0.75,-0.56,0.22,-4.94,-26.67,14.04
1777399357992,1990626,-0.75,-0.56,0.23,-1.28,-26.79,13.18
1777399357992,1990636,-0.77,-0.55,0.25,0.92,-25.94,12.39
1777399357993,1990646,-0.78,-0.55,0.27,2.20,-24.54,12.15
1777399357993,1990656,-0.79,-0.55,0.30,2.01,-23.19,11.96
1777399357993,1990666,-0.80,-0.54,0.32,-0.67,-22.46,11.72
1777399357993,1990676,-0.81,-0.54,0.33,-5.19,-22.64,11.29
1777399357993,1990686,-0.81,-0.54,0.33,-9.58,-23.32,10.74
1777399357993,1990696,-0.81,-0.54,0.31,-13.06,-23.93,10.13
1777399357994,1990706,-0.80,-0.54,0.30,-15.26,-24.11,9.09
1777399357994,1990716,-0.80,-0.54,0.28,-15.99,-23.50,8.48
1777399357994,1990726,-0.79,-0.54,0.28,-15.14,-22.34,8.24
1777399357994,1990736,-0.80,-0.53,0.28,-13.67,-21.36,8.54
1777399357994,1990746,-0.80,-0.52,0.27,-11.96,-20.69,8.97
1777399357994,1990756,-0.80,-0.51,0.28,-10.62,-19.96,8.54
1777399357995,1990766,-0.80,-0.50,0.28,-10.19,-19.71,7.81
1777399357995,1990776,-0.80,-0.50,0.28,-10.68,-20.26,7.08
1777399357995,1990786,-0.80,-0.51,0.28,-11.23,-20.87,6.23
1777399357995,1990796,-0.80,-0.51,0.28,-11.29,-21.91,5.31
1777399357995,1990806,-0.79,-0.51,0.27,-11.17,-22.58,4.33
1777399357995,1990826,-0.78,-0.51,0.26,-9.64,-18.98,5.00
1777399357996,1990846,-0.79,-0.52,0.28,-9.34,-17.21,6.16
1777399357996,1990866,-0.80,-0.54,0.28,-8.61,-20.69,4.58
1777399357996,1990886,-0.77,-0.52,0.27,-9.16,-24.48,2.14
1777399357996,1990896,-0.76,-0.52,0.27,-8.91,-24.35,2.44
1777399357996,1990906,-0.76,-0.52,0.27,-8.91,-23.38,3.05
1777399357996,1990916,-0.78,-0.53,0.29,-9.09,-23.19,3.23
1777399357997,1990926,-0.79,-0.53,0.29,-9.22,-23.86,2.99
1777399357997,1990936,-0.79,-0.54,0.29,-9.16,-24.17,2.38
1777399357997,1990946,-0.79,-0.55,0.30,-8.54,-24.17,2.08
1777399357997,1990956,-0.79,-0.55,0.31,-7.63,-24.05,2.08
1777399357997,1990966,-0.80,-0.54,0.32,-6.59,-23.80,2.32
1777399357997,1990976,-0.81,-0.54,0.33,-5.98,-23.44,2.99
1777399357998,1990986,-0.82,-0.54,0.34,-5.74,-23.13,3.48
1777399357998,1990996,-0.82,-0.54,0.35,-5.98,-22.89,3.36
1777399357998,1991006,-0.82,-0.54,0.36,-6.84,-22.58,1.65
1777399357998,1991016,-0.81,-0.53,0.35,-8.18,-22.28,0.00
1777399357998,1991026,-0.80,-0.52,0.35,-9.16,-21.55,-0.73
1777399357998,1991036,-0.79,-0.51,0.34,-10.01,-20.39,-0.85
1777399357998,1991046,-0.78,-0.50,0.33,-10.56,-18.37,0.06
1777399357999,1991056,-0.77,-0.50,0.33,-11.05,-15.93,1.59
1777399357999,1991066,-0.79,-0.50,0.34,-11.35,-13.55,2.44
1777399357999,1991076,-0.79,-0.50,0.34,-11.35,-11.90,2.62
1777399357999,1991086,-0.80,-0.50,0.35,-11.60,-11.60,1.71
1777399357999,1991096,-0.80,-0.50,0.34,-11.72,-12.27,0.18
1777399357999,1991106,-0.79,-0.49,0.34,-11.35,-12.70,-0.98
1777399358000,1991116,-0.78,-0.49,0.33,-10.44,-13.12,-1.40
1777399358000,1991126,-0.77,-0.49,0.33,-9.77,-12.88,-1.59
1777399358000,1991136,-0.76,-0.49,0.32,-9.52,-12.76,-1.65
1777399358000,1991146,-0.75,-0.49,0.31,-9.40,-13.12,-1.53
1777399358000,1991156,-0.73,-0.49,0.31,-9.22,-13.61,0.00
1777399358000,1991176,-0.73,-0.50,0.32,-8.24,-17.21,1.77
1777399358001,1991196,-0.74,-0.51,0.33,-6.84,-21.18,2.08
1777399358001,1991216,-0.74,-0.51,0.35,-5.74,-21.91,1.59
1777399358001,1991236,-0.75,-0.52,0.36,-7.26,-22.09,2.32
1777399358001,1991246,-0.74,-0.53,0.36,-8.30,-22.83,2.56
1777399358001,1991256,-0.74,-0.53,0.36,-8.91,-24.23,2.99
1777399358001,1991266,-0.74,-0.53,0.36,-8.79,-25.76,3.97
1777399358001,1991276,-0.75,-0.54,0.36,-8.06,-27.16,4.70
1777399358002,1991286,-0.75,-0.54,0.37,-7.02,-28.87,4.94
1777399358002,1991296,-0.76,-0.53,0.37,-5.92,-30.58,5.55
1777399358002,1991306,-0.77,-0.53,0.38,-4.88,-31.80,6.59
1777399358002,1991316,-0.77,-0.53,0.38,-3.17,-31.98,7.14
1777399358002,1991326,-0.77,-0.51,0.40,-2.08,-30.33,6.35
1777399358002,1991336,-0.78,-0.50,0.42,-3.30,-28.32,4.94
1777399358003,1991346,-0.78,-0.50,0.43,-5.55,-26.92,4.21
1777399358003,1991356,-0.78,-0.50,0.43,-7.20,-25.82,4.09
1777399358003,1991366,-0.77,-0.49,0.42,-8.67,-24.23,4.33
1777399358003,1991376,-0.76,-0.47,0.41,-9.89,-22.34,5.68
1777399358003,1991386,-0.75,-0.47,0.40,-11.17,-20.08,8.00
1777399358003,1991396,-0.75,-0.48,0.39,-12.45,-17.15,9.58
1777399358003,1991406,-0.75,-0.47,0.39,-12.63,-14.16,10.38
1777399358004,1991416,-0.74,-0.45,0.38,-12.51,-11.60,10.86
1777399358004,1991426,-0.75,-0.45,0.38,-12.94,-9.83,11.23
1777399358004,1991436,-0.76,-0.46,0.39,-13.18,-9.46,11.17
1777399358004,1991446,-0.78,-0.46,0.39,-12.76,-10.07,9.77
1777399358004,1991456,-0.78,-0.45,0.39,-11.60,-11.47,7.87
1777399358004,1991466,-0.78,-0.45,0.39,-10.56,-13.18,6.35
1777399358004,1991476,-0.77,-0.44,0.38,-9.95,-13.73,5.13
1777399358005,1991486,-0.76,-0.45,0.38,-9.58,-13.61,4.88
1777399358005,1991496,-0.77,-0.45,0.38,-9.34,-13.12,5.25
1777399358005,1991516,-0.78,-0.46,0.38,-7.87,-12.94,5.55
1777399358005,1991536,-0.78,-0.47,0.38,-7.32,-16.05,3.30
1777399358005,1991556,-0.77,-0.47,0.38,-7.02,-19.17,1.28
1777399358005,1991576,-0.76,-0.46,0.37,-8.67,-18.55,0.37
1777399358005,1991586,-0.76,-0.46,0.37,-8.79,-16.78,1.04
1777399358006,1991596,-0.77,-0.46,0.38,-8.36,-14.53,1.59
1777399358006,1991606,-0.78,-0.47,0.38,-7.81,-12.82,1.83
1777399358006,1991616,-0.79,-0.47,0.40,-7.57,-11.90,1.71
1777399358006,1991626,-0.79,-0.47,0.40,-7.69,-11.90,1.77
1777399358006,1991636,-0.80,-0.46,0.40,-8.00,-12.27,1.77
1777399358006,1991646,-0.79,-0.46,0.39,-8.12,-12.70,2.20
1777399358006,1991656,-0.79,-0.46,0.38,-8.48,-12.45,2.44
1777399358007,1991666,-0.78,-0.46,0.38,-9.09,-11.96,1.77
1777399358007,1991676,-0.78,-0.47,0.37,-9.46,-11.84,1.46
1777399358007,1991686,-0.77,-0.47,0.36,-9.58,-12.15,1.40
1777399358007,1991696,-0.77,-0.47,0.36,-8.97,-12.70,1.59
1777399358007,1991706,-0.77,-0.47,0.36,-8.06,-13.18,1.59
1777399358007,1991716,-0.78,-0.47,0.36,-7.02,-13.37,1.04
1777399358007,1991726,-0.78,-0.47,0.37,-5.74,-13.61,0.06
1777399358008,1991736,-0.77,-0.47,0.38,-4.58,-13.73,-0.85
1777399358008,1991746,-0.77,-0.47,0.38,-3.72,-13.85,-1.59
1777399358008,1991756,-0.77,-0.47,0.39,-3.42,-13.67,-1.83
1777399358008,1991766,-0.76,-0.48,0.38,-3.72,-13.98,-1.59
1777399358008,1991776,-0.77,-0.48,0.39,-4.03,-13.85,-1.40
1777399358008,1991786,-0.76,-0.49,0.39,-4.03,-14.10,-1.22
1777399358008,1991796,-0.76,-0.49,0.38,-4.03,-14.16,-0.49
1777399358009,1991806,-0.75,-0.49,0.38,-4.15,-13.55,0.31
1777399358009,1991816,-0.75,-0.49,0.39,-4.03,-12.45,0.98
1777399358009,1991826,-0.77,-0.49,0.40,-3.60,-11.11,2.20
1777399358009,1991836,-0.78,-0.48,0.41,-3.05,-10.38,3.11
1777399358009,1991846,-0.79,-0.48,0.42,-2.81,-10.19,3.91
1777399358009,1991866,-0.81,-0.48,0.42,-2.81,-9.03,2.32
1777399358009,1991886,-0.80,-0.45,0.43,-4.88,-6.53,0.18
1777399358010,1991906,-0.79,-0.47,0.41,-5.92,-5.00,1.65
1777399358010,1991926,-0.80,-0.44,0.41,-4.58,-4.03,1.71
1777399358010,1991936,-0.79,-0.45,0.40,-4.82,-3.36,2.62
1777399358010,1991946,-0.79,-0.44,0.39,-4.64,-2.20,2.01
1777399358010,1991956,-0.79,-0.42,0.39,-3.91,-0.79,1.71
1777399358010,1991966,-0.79,-0.43,0.38,-3.17,0.31,2.14
1777399358010,1991976,-0.78,-0.44,0.37,-2.75,0.79,1.77
1777399358011,1991986,-0.79,-0.43,0.38,-1.89,1.10,0.79
1777399358011,1991996,-0.78,-0.43,0.37,-0.98,0.92,0.12
1777399358011,1992006,-0.78,-0.43,0.36,-0.49,0.37,-1.04
1777399358011,1992016,-0.77,-0.42,0.36,0.67,0.12,-1.46
1777399358011,1992026,-0.77,-0.42,0.36,1.95,0.24,-0.92
1777399358011,1992036,-0.76,-0.43,0.36,2.50,0.43,-0.79
1777399358011,1992046,-0.78,-0.42,0.36,3.17,0.00,-1.22
1777399358012,1992056,-0.78,-0.43,0.37,4.27,-1.40,-1.59
1777399358012,1992066,-0.78,-0.43,0.38,5.25,-3.66,-2.38
1777399358012,1992076,-0.77,-0.45,0.37,5.92,-5.68,-3.30
1777399358012,1992086,-0.77,-0.44,0.37,7.08,-7.20,-4.46
1777399358012,1992096,-0.77,-0.44,0.37,8.06,-8.18,-5.37
1777399358012,1992106,-0.77,-0.45,0.38,8.42,-8.48,-5.80
1777399358012,1992116,-0.78,-0.45,0.39,8.73,-8.24,-6.10
1777399358013,1992126,-0.79,-0.44,0.40,9.03,-8.42,-6.35
1777399358013,1992136,-0.78,-0.46,0.41,9.22,-8.73,-6.41
1777399358013,1992146,-0.79,-0.46,0.41,9.34,-8.54,-7.63
1777399358013,1992156,-0.78,-0.45,0.41,9.03,-8.54,-8.48
1777399358013,1992166,-0.76,-0.47,0.41,8.12,-9.03,-8.48
1777399358013,1992176,-0.76,-0.47,0.40,7.26,-9.28,-8.24
1777399358013,1992186,-0.75,-0.47,0.40,6.77,-9.22,-7.75
1777399358013,1992206,-0.75,-0.47,0.40,5.49,-7.69,-3.91
1777399358014,1992226,-0.78,-0.44,0.42,4.76,-7.87,-2.81
1777399358014,1992246,-0.80,-0.46,0.42,3.42,-8.24,-4.03
1777399358014,1992266,-0.78,-0.45,0.39,1.65,-6.53,-5.13
1777399358014,1992276,-0.78,-0.45,0.39,0.92,-4.76,-4.39
1777399358014,1992286,-0.78,-0.45,0.39,1.22,-3.11,-2.93
1777399358014,1992296,-0.79,-0.44,0.39,1.71,-2.44,-2.26
1777399358014,1992306,-0.79,-0.43,0.39,1.77,-2.14,-2.01
1777399358015,1992316,-0.79,-0.43,0.39,1.71,-2.20,-1.65
1777399358015,1992326,-0.80,-0.43,0.39,2.08,-2.01,-1.65
1777399358015,1992336,-0.80,-0.43,0.39,2.87,-2.20,-2.01
1777399358015,1992346,-0.81,-0.43,0.39,3.48,-2.75,-2.81
1777399358015,1992356,-0.80,-0.43,0.39,3.85,-3.30,-3.91
1777399358015,1992366,-0.80,-0.43,0.39,4.03,-3.60,-4.82
1777399358016,1992376,-0.80,-0.43,0.38,4.33,-4.03,-5.43
1777399358016,1992386,-0.79,-0.43,0.38,5.13,-4.09,-5.19
1777399358016,1992396,-0.79,-0.42,0.38,6.41,-3.11,-4.64
1777399358016,1992406,-0.80,-0.42,0.39,7.69,-2.01,-4.03
1777399358016,1992416,-0.80,-0.42,0.40,8.42,-1.28,-3.85
1777399358016,1992426,-0.81,-0.42,0.41,8.42,-0.98,-4.82
1777399358016,1992436,-0.80,-0.42,0.41,8.12,-1.53,-6.16
1777399358016,1992446,-0.80,-0.42,0.40,8.18,-2.26,-6.65
1777399358017,1992456,-0.80,-0.43,0.40,8.85,-2.93,-6.96
1777399358017,1992466,-0.79,-0.43,0.40,9.83,-3.11,-7.57
1777399358017,1992476,-0.80,-0.40,0.41,10.44,-3.72,-7.93
1777399358017,1992486,-0.78,-0.42,0.40,9.89,-4.70,-6.84
1777399358017,1992496,-0.78,-0.44,0.39,8.48,-4.27,-7.20
1777399358017,1992506,-0.79,-0.41,0.40,8.79,-2.75,-7.81
1777399358017,1992516,-0.78,-0.40,0.40,9.03,-2.01,-6.35
1777399358017,1992526,-0.78,-0.44,0.39,8.06,-2.20,-5.19
1777399358018,1992536,-0.78,-0.44,0.39,7.69,-2.01,-6.53
1777399358018,1992556,-0.77,-0.42,0.38,7.51,-4.58,-5.25
1777399358018,1992576,-0.77,-0.42,0.39,8.97,-5.07,-5.49
1777399358018,1992596,-0.77,-0.43,0.39,8.06,-6.77,-4.88
1777399358018,1992616,-0.77,-0.42,0.38,7.39,-6.16,-3.97
1777399358018,1992626,-0.78,-0.42,0.39,7.69,-5.07,-2.81
1777399358018,1992636,-0.79,-0.42,0.41,7.45,-4.39,-2.50
1777399358018,1992646,-0.80,-0.43,0.41,6.53,-4.94,-2.75
1777399358019,1992656,-0.80,-0.43,0.41,5.80,-6.23,-2.69
1777399358019,1992666,-0.81,-0.43,0.41,5.68,-6.96,-2.81
1777399358019,1992676,-0.81,-0.43,0.42,5.43,-6.90,-3.23
1777399358019,1992686,-0.83,-0.42,0.43,4.76,-6.59,-3.66
1777399358019,1992696,-0.82,-0.41,0.43,4.33,-7.51,-3.11
1777399358019,1992706,-0.81,-0.42,0.41,2.75,-8.48,-2.44
1777399358019,1992716,-0.80,-0.44,0.40,1.34,-7.63,-3.42
1777399358019,1992726,-0.82,-0.40,0.41,1.89,-5.80,-5.00
1777399358020,1992736,-0.80,-0.40,0.41,2.20,-5.13,-3.97
1777399358020,1992746,-0.80,-0.42,0.41,1.40,-4.94,-3.17
1777399358020,1992756,-0.78,-0.42,0.40,0.49,-4.70,-4.27
1777399358020,1992766,-0.78,-0.42,0.40,-0.49,-4.82,-5.62
1777399358020,1992776,-0.77,-0.43,0.39,-0.73,-5.98,-5.37
1777399358020,1992786,-0.77,-0.44,0.39,-0.31,-7.57,-4.82
1777399358020,1992796,-0.77,-0.44,0.39,0.31,-8.79,-5.07
1777399358021,1992806,-0.77,-0.44,0.39,0.55,-9.58,-5.31
1777399358021,1992816,-0.77,-0.45,0.39,0.67,-10.07,-5.37
1777399358021,1992826,-0.77,-0.44,0.40,0.49,-10.01,-5.68
1777399358021,1992836,-0.78,-0.44,0.41,-0.06,-10.38,-5.43
1777399358021,1992846,-0.78,-0.45,0.41,0.00,-10.74,-4.82
1777399358021,1992856,-0.78,-0.45,0.42,-0.18,-10.31,-4.52
1777399358021,1992866,-0.78,-0.44,0.43,-1.16,-9.64,-4.03
1777399358021,1992876,-0.78,-0.44,0.43,-2.50,-8.91,-3.66
1777399358021,1992896,-0.79,-0.44,0.44,-4.94,-8.73,-4.15
1777399358022,1992916,-0.79,-0.44,0.42,-5.07,-9.83,-5.43
1777399358022,1992936,-0.77,-0.44,0.42,-5.19,-10.74,-6.10
1777399358022,1992956,-0.76,-0.44,0.41,-5.00,-11.60,-7.14
1777399358022,1992966,-0.74,-0.45,0.40,-5.25,-11.78,-6.84
1777399358022,1992976,-0.74,-0.48,0.40,-5.49,-11.17,-7.39
1777399358022,1992986,-0.76,-0.42,0.42,-4.21,-10.93,-7.75
1777399358022,1992996,-0.74,-0.45,0.41,-3.72,-11.84,-4.82
1777399358022,1993006,-0.74,-0.47,0.42,-5.07,-11.78,-4.39
1777399358023,1993016,-0.76,-0.44,0.42,-4.82,-11.60,-4.58
1777399358023,1993026,-0.76,-0.45,0.43,-5.00,-11.54,-3.17
1777399358023,1993036,-0.77,-0.45,0.43,-5.49,-11.47,-2.44
1777399358023,1993046,-0.78,-0.44,0.44,-5.62,-10.74,-3.11
1777399358023,1993056,-0.76,-0.43,0.43,-5.74,-10.07,-3.54
1777399358023,1993066,-0.78,-0.43,0.44,-6.23,-9.70,-2.93
1777399358023,1993076,-0.77,-0.44,0.43,-6.59,-9.83,-2.01
1777399358023,1993086,-0.79,-0.43,0.43,-6.71,-9.58,-1.65
1777399358024,1993096,-0.79,-0.41,0.43,-6.41,-9.09,-1.95
1777399358024,1993106,-0.79,-0.42,0.43,-6.77,-8.61,-2.01
1777399358024,1993116,-0.79,-0.42,0.42,-6.71,-7.87,-2.08
1777399358024,1993126,-0.79,-0.42,0.42,-5.62,-7.08,-1.16
1777399358024,1993136,-0.80,-0.41,0.43,-4.64,-6.53,-0.73
1777399358024,1993146,-0.80,-0.41,0.43,-3.72,-6.41,-0.85
1777399358024,1993156,-0.81,-0.40,0.43,-3.42,-6.23,-1.28
1777399358024,1993166,-0.80,-0.40,0.42,-3.36,-5.86,-1.46
1777399358025,1993176,-0.80,-0.40,0.42,-2.93,-5.37,-1.10
1777399358025,1993186,-0.81,-0.41,0.41,-2.14,-4.82,-0.55
1777399358025,1993196,-0.80,-0.40,0.40,-1.40,-4.03,-1.16
1777399358025,1993206,-0.80,-0.40,0.40,-0.79,-3.42,-2.01
1777399358025,1993216,-0.80,-0.40,0.39,-0.12,-3.11,-2.14
1777399358025,1993226,-0.80,-0.39,0.39,0.73,-3.42,-2.50
1777399358025,1993246,-0.80,-0.40,0.39,4.70,-4.39,-3.97
1777399358025,1993266,-0.79,-0.41,0.39,5.62,-4.94,-4.58
1777399358025,1993286,-0.79,-0.41,0.40,6.77,-3.78,-5.25
1777399358026,1993306,-0.78,-0.42,0.40,7.51,-3.48,-5.43
1777399358026,1993316,-0.78,-0.42,0.40,8.12,-3.54,-5.25
1777399358026,1993326,-0.79,-0.42,0.41,8.54,-3.66,-5.19
1777399358026,1993336,-0.80,-0.42,0.42,9.16,-4.03,-5.31
1777399358026,1993346,-0.80,-0.42,0.42,9.95,-4.15,-5.80
1777399358026,1993356,-0.79,-0.42,0.43,9.83,-3.91,-6.84
1777399358026,1993366,-0.79,-0.43,0.43,9.34,-3.48,-7.39
1777399358026,1993376,-0.79,-0.43,0.43,8.91,-3.36,-7.26
1777399358027,1993386,-0.79,-0.42,0.43,8.54,-2.99,-7.02
1777399358027,1993396,-0.79,-0.42,0.43,8.30,-2.32,-6.71
1777399358027,1993406,-0.79,-0.42,0.43,7.93,-1.46,-6.47
1777399358027,1993416,-0.79,-0.43,0.43,7.63,-1.10,-6.90
1777399358027,1993426,-0.79,-0.43,0.43,7.57,-1.16,-7.26
1777399358027,1993436,-0.78,-0.43,0.43,7.87,-1.28,-6.59
1777399358027,1993446,-0.78,-0.43,0.43,7.75,-1.71,-6.23
1777399358027,1993456,-0.77,-0.42,0.43,7.02,-1.77,-6.84
1777399358028,1993466,-0.78,-0.42,0.43,6.47,-2.32,-7.26
1777399358028,1993476,-0.77,-0.42,0.42,6.35,-3.54,-6.23
1777399358028,1993486,-0.76,-0.44,0.42,5.55,-3.97,-5.55
1777399358028,1993496,-0.76,-0.42,0.41,5.31,-3.72,-6.53
1777399358028,1993506,-0.76,-0.41,0.41,5.31,-3.23,-5.92
1777399358028,1993516,-0.77,-0.42,0.42,4.76,-2.08,-4.88
1777399358028,1993526,-0.78,-0.41,0.42,4.46,-1.28,-4.33
1777399358028,1993536,-0.78,-0.43,0.43,3.66,-1.34,-3.23
1777399358029,1993546,-0.79,-0.44,0.42,2.87,-1.89,-3.42
1777399358029,1993556,-0.79,-0.42,0.42,3.17,-2.93,-4.82
1777399358029,1993566,-0.79,-0.43,0.41,3.54,-3.66,-5.49
1777399358029,1993586,-0.79,-0.43,0.42,3.54,-3.78,-6.65
1777399358029,1993606,-0.79,-0.46,0.41,1.34,-5.43,-5.68
1777399358029,1993626,-0.78,-0.41,0.40,1.65,-3.11,-6.35
1777399358029,1993646,-0.79,-0.42,0.41,2.08,-0.85,-5.13
1777399358029,1993656,-0.79,-0.42,0.42,2.26,-1.71,-5.37
1777399358030,1993666,-0.80,-0.43,0.42,2.14,-3.66,-5.68
1777399358030,1993676,-0.80,-0.43,0.42,1.95,-5.07,-6.41
1777399358030,1993686,-0.80,-0.43,0.41,1.77,-6.04,-7.45
1777399358030,1993696,-0.79,-0.42,0.41,1.83,-6.35,-8.00
1777399358030,1993706,-0.78,-0.41,0.42,1.95,-5.86,-7.32
1777399358030,1993716,-0.79,-0.42,0.41,1.16,-5.92,-5.92
1777399358030,1993726,-0.78,-0.43,0.40,0.43,-5.25,-5.55
1777399358030,1993736,-0.79,-0.41,0.41,0.67,-3.72,-5.98
1777399358031,1993746,-0.78,-0.41,0.40,1.10,-2.75,-5.55
1777399358031,1993756,-0.78,-0.42,0.41,1.28,-1.95,-5.19
1777399358031,1993766,-0.79,-0.41,0.42,1.53,-1.95,-5.13
1777399358031,1993776,-0.79,-0.41,0.41,1.53,-2.87,-5.13
1777399358031,1993786,-0.79,-0.40,0.42,1.65,-4.46,-4.88
1777399358031,1993796,-0.79,-0.42,0.41,1.59,-6.16,-4.46
1777399358031,1993806,-0.79,-0.42,0.40,1.28,-6.35,-5.43
1777399358031,1993816,-0.79,-0.41,0.39,1.65,-5.00,-6.84
1777399358031,1993826,-0.78,-0.41,0.40,2.56,-3.42,-7.02
1777399358032,1993836,-0.79,-0.41,0.41,3.17,-2.75,-6.16
1777399358032,1993846,-0.78,-0.41,0.42,2.87,-3.36,-5.43
1777399358032,1993856,-0.78,-0.42,0.41,2.14,-4.70,-5.25
1777399358032,1993866,-0.78,-0.42,0.40,2.38,-5.49,-5.74
1777399358032,1993876,-0.78,-0.41,0.40,3.48,-5.25,-6.04
1777399358032,1993886,-0.78,-0.41,0.40,4.52,-4.39,-5.80
1777399358032,1993896,-0.79,-0.41,0.42,5.07,-3.97,-5.98
1777399358033,1993906,-0.78,-0.41,0.42,4.88,-4.33,-6.16
1777399358033,1993916,-0.78,-0.40,0.41,4.58,-4.70,-6.10
1777399358033,1993936,-0.77,-0.41,0.40,7.20,-5.07,-6.77
1777399358033,1993956,-0.77,-0.41,0.43,10.25,-6.04,-6.59
1777399358033,1993976,-0.77,-0.41,0.43,11.29,-6.47,-6.04
1777399358033,1993996,-0.77,-0.41,0.43,13.06,-4.64,-4.09
1777399358033,1994006,-0.77,-0.41,0.44,14.28,-3.30,-3.42
1777399358033,1994016,-0.79,-0.41,0.45,15.50,-2.26,-3.05
1777399358033,1994026,-0.80,-0.41,0.45,16.54,-1.53,-3.54
1777399358034,1994036,-0.80,-0.41,0.46,17.15,-1.28,-3.91
1777399358034,1994046,-0.80,-0.42,0.46,17.70,-1.34,-3.78
1777399358034,1994056,-0.80,-0.41,0.46,18.43,-0.98,-4.21
1777399358034,1994066,-0.79,-0.41,0.45,19.04,0.00,-4.76
1777399358034,1994076,-0.78,-0.42,0.44,19.47,1.65,-5.13
1777399358034,1994086,-0.78,-0.41,0.43,20.20,4.09,-5.80
1777399358034,1994096,-0.79,-0.40,0.44,21.48,6.59,-5.74
1777399358034,1994106,-0.79,-0.40,0.44,21.97,8.18,-5.68
1777399358035,1994116,-0.78,-0.41,0.43,21.85,8.48,-6.47
1777399358035,1994126,-0.78,-0.41,0.42,22.52,8.30,-7.69
1777399358035,1994136,-0.78,-0.41,0.40,24.05,8.42,-8.24
1777399358035,1994146,-0.78,-0.41,0.40,25.94,9.09,-8.79
1777399358035,1994156,-0.79,-0.42,0.41,28.20,9.77,-10.13
1777399358035,1994166,-0.79,-0.42,0.42,30.52,9.40,-11.66
1777399358035,1994176,-0.79,-0.42,0.43,32.41,8.42,-13.18
1777399358035,1994186,-0.79,-0.42,0.43,33.45,8.12,-15.08
1777399358035,1994196,-0.78,-0.42,0.43,34.18,8.30,-16.42
1777399358036,1994206,-0.77,-0.42,0.43,35.03,9.16,-17.21
1777399358036,1994216,-0.77,-0.41,0.44,36.01,10.68,-17.46
1777399358036,1994226,-0.78,-0.42,0.46,36.74,11.66,-17.40
1777399358036,1994236,-0.78,-0.43,0.47,37.78,11.60,-17.52
1777399358036,1994246,-0.79,-0.42,0.48,38.76,10.68,-18.07
1777399358036,1994256,-0.78,-0.42,0.48,38.88,10.13,-18.25
1777399358036,1994266,-0.79,-0.42,0.48,38.94,10.86,-18.37
1777399358036,1994286,-0.81,-0.42,0.50,38.27,15.44,-19.35
1777399358037,1994306,-0.81,-0.40,0.48,35.77,17.33,-20.08
1777399358037,1994326,-0.80,-0.40,0.45,34.48,19.35,-20.39
1777399358037,1994336,-0.79,-0.40,0.44,34.79,20.26,-20.57
1777399358037,1994346,-0.79,-0.41,0.43,35.77,20.94,-20.39
1777399358037,1994356,-0.79,-0.41,0.43,37.29,21.12,-20.87
1777399358037,1994366,-0.79,-0.40,0.43,38.45,20.63,-21.18
1777399358037,1994376,-0.79,-0.40,0.43,39.00,20.20,-20.87
1777399358037,1994386,-0.79,-0.40,0.43,39.00,20.08,-20.81
1777399358037,1994396,-0.80,-0.39,0.44,39.12,20.02,-20.94
1777399358038,1994406,-0.80,-0.39,0.43,39.00,20.02,-21.24
1777399358038,1994416,-0.79,-0.39,0.43,38.70,20.45,-21.79
1777399358038,1994426,-0.80,-0.39,0.43,38.64,20.14,-21.73
1777399358038,1994436,-0.80,-0.39,0.43,38.82,19.90,-21.73
1777399358038,1994446,-0.79,-0.39,0.42,39.43,19.65,-22.22
1777399358038,1994456,-0.79,-0.38,0.42,39.61,19.53,-22.71
1777399358038,1994466,-0.78,-0.38,0.41,39.55,19.47,-22.71
1777399358038,1994476,-0.77,-0.38,0.40,39.06,19.47,-22.40
1777399358039,1994486,-0.76,-0.38,0.39,38.64,19.59,-21.79
1777399358039,1994496,-0.76,-0.39,0.39,38.64,19.53,-20.57
1777399358039,1994506,-0.77,-0.39,0.39,39.18,18.68,-19.65
1777399358039,1994516,-0.78,-0.39,0.40,40.04,16.91,-18.74
1777399358039,1994526,-0.78,-0.39,0.40,40.89,14.95,-17.70
1777399358039,1994536,-0.79,-0.39,0.40,41.56,13.37,-16.78
1777399358039,1994546,-0.80,-0.38,0.41,42.11,12.39,-15.75
1777399358039,1994556,-0.81,-0.38,0.41,42.54,12.45,-14.47
1777399358039,1994566,-0.82,-0.37,0.43,42.05,12.94,-13.98
1777399358040,1994576,-0.84,-0.37,0.43,40.53,12.88,-13.98
1777399358040,1994586,-0.84,-0.37,0.43,39.18,12.15,-13.61
1777399358040,1994596,-0.84,-0.36,0.43,37.90,11.35,-13.12
1777399358040,1994606,-0.84,-0.36,0.42,36.50,10.80,-11.84
1777399358040,1994626,-0.82,-0.35,0.39,32.84,13.67,-9.46
1777399358040,1994646,-0.83,-0.35,0.37,30.94,15.26,-7.32
1777399358040,1994666,-0.84,-0.35,0.35,29.97,15.38,-6.96
1777399358040,1994686,-0.84,-0.35,0.32,29.24,17.15,-7.32
1777399358041,1994696,-0.85,-0.35,0.31,29.72,18.86,-7.20
1777399358041,1994706,-0.85,-0.35,0.31,30.76,19.65,-7.63
1777399358041,1994716,-0.86,-0.35,0.30,31.01,19.90,-9.03
1777399358041,1994726,-0.86,-0.35,0.30,32.10,19.59,-9.83
1777399358041,1994736,-0.88,-0.35,0.30,34.42,19.17,-10.93
1777399358041,1994746,-0.87,-0.35,0.31,36.44,18.13,-12.82
1777399358041,1994756,-0.87,-0.36,0.32,37.90,16.42,-15.20
1777399358041,1994766,-0.87,-0.35,0.32,39.43,14.95,-17.09
1777399358041,1994776,-0.88,-0.35,0.33,40.65,13.55,-18.25
1777399358042,1994786,-0.88,-0.34,0.33,42.24,12.88,-19.41
1777399358042,1994796,-0.87,-0.34,0.34,43.46,13.06,-20.94
1777399358042,1994806,-0.87,-0.33,0.35,43.95,13.67,-22.40
1777399358042,1994816,-0.88,-0.33,0.36,44.31,14.04,-23.62
1777399358042,1994826,-0.88,-0.33,0.37,43.88,13.37,-24.96
1777399358042,1994836,-0.87,-0.33,0.37,43.27,11.84,-26.12
1777399358042,1994846,-0.86,-0.33,0.36,42.72,10.13,-27.04
1777399358042,1994856,-0.85,-0.33,0.36,42.30,9.09,-27.22
1777399358042,1994866,-0.86,-0.33,0.35,42.18,8.97,-26.73
1777399358043,1994876,-0.86,-0.33,0.35,42.30,9.70,-26.49
1777399358043,1994886,-0.86,-0.33,0.36,41.38,10.50,-26.43
1777399358043,1994896,-0.86,-0.34,0.36,40.28,10.31,-26.18
1777399358043,1994906,-0.86,-0.34,0.35,39.25,9.89,-25.70
1777399358043,1994916,-0.85,-0.33,0.35,37.90,9.52,-24.35
1777399358043,1994926,-0.84,-0.34,0.33,36.50,9.83,-22.71
1777399358043,1994936,-0.84,-0.34,0.33,35.16,11.23,-21.61
1777399358043,1994946,-0.85,-0.34,0.33,34.18,12.88,-20.69
1777399358044,1994956,-0.85,-0.34,0.33,33.45,13.85,-18.92
1777399358044,1994976,-0.86,-0.34,0.33,29.85,12.94,-17.94
1777399358044,1994996,-0.85,-0.35,0.29,28.02,12.88,-17.03
1777399358044,1995016,-0.86,-0.35,0.29,27.89,13.79,-16.91
1777399358044,1995036,-0.87,-0.35,0.30,28.08,12.63,-15.93
1777399358044,1995046,-0.87,-0.35,0.31,28.20,11.29,-16.78
1777399358044,1995056,-0.87,-0.34,0.31,28.08,9.34,-17.64
1777399358044,1995066,-0.86,-0.34,0.31,27.16,7.51,-18.25
1777399358044,1995076,-0.85,-0.34,0.31,25.94,6.29,-18.74
1777399358045,1995086,-0.85,-0.34,0.31,25.02,5.62,-18.86
1777399358045,1995096,-0.84,-0.34,0.31,24.17,5.00,-18.62
1777399358045,1995106,-0.84,-0.34,0.31,22.77,4.15,-18.01
1777399358045,1995116,-0.83,-0.35,0.31,21.55,2.99,-16.85
1777399358045,1995126,-0.83,-0.36,0.31,21.00,1.89,-15.50
1777399358045,1995136,-0.84,-0.36,0.31,20.69,1.40,-13.98
1777399358045,1995146,-0.84,-0.37,0.33,20.45,1.46,-12.15
1777399358045,1995156,-0.85,-0.37,0.34,19.84,1.65,-10.25
1777399358045,1995166,-0.87,-0.37,0.36,18.55,1.83,-8.67
1777399358045,1995176,-0.89,-0.37,0.37,16.78,1.53,-7.75
1777399358046,1995186,-0.89,-0.37,0.37,14.34,0.98,-6.96
1777399358046,1995196,-0.88,-0.36,0.36,11.41,0.67,-6.16
1777399358046,1995206,-0.88,-0.36,0.34,8.79,1.46,-5.13
1777399358046,1995216,-0.87,-0.35,0.32,6.41,3.17,-4.15
1777399358046,1995226,-0.86,-0.36,0.31,5.00,5.00,-3.60
1777399358046,1995236,-0.86,-0.35,0.31,5.00,5.80,-3.30
1777399358046,1995246,-0.86,-0.35,0.31,5.62,5.25,-3.23
1777399358046,1995256,-0.86,-0.34,0.31,6.41,3.60,-3.54
1777399358046,1995266,-0.85,-0.34,0.31,7.02,1.65,-4.03
1777399358047,1995276,-0.85,-0.33,0.31,7.02,0.00,-4.27
1777399358047,1995286,-0.84,-0.32,0.30,6.84,-0.73,-4.82
1777399358047,1995296,-0.83,-0.31,0.30,6.23,-0.12,-5.37
1777399358047,1995316,-0.83,-0.31,0.30,5.37,1.71,-3.54
1777399358047,1995336,-0.84,-0.33,0.30,5.43,-1.28,-3.11
1777399358047,1995356,-0.86,-0.34,0.31,6.96,-4.76,-2.99
1777399358047,1995376,-0.89,-0.33,0.33,8.54,-6.96,-3.36
1777399358047,1995386,-0.90,-0.32,0.35,7.75,-7.26,-3.78
1777399358047,1995396,-0.90,-0.32,0.35,5.86,-7.14,-3.85
1777399358048,1995406,-0.90,-0.32,0.34,3.72,-5.86,-3.60
1777399358048,1995416,-0.89,-0.33,0.33,1.77,-3.54,-3.42
1777399358048,1995426,-0.89,-0.33,0.33,0.31,-1.40,-2.87
1777399358048,1995436,-0.89,-0.33,0.32,-0.73,-0.12,-2.01
1777399358048,1995446,-0.89,-0.33,0.32,-1.34,0.18,-1.65
1777399358048,1995456,-0.89,-0.33,0.31,-1.71,0.12,-1.89
1777399358048,1995466,-0.90,-0.33,0.30,-1.46,-0.18,-2.75
1777399358048,1995476,-0.89,-0.33,0.29,-1.04,-0.49,-4.27
1777399358048,1995486,-0.89,-0.33,0.29,-0.31,-0.61,-6.10
1777399358048,1995496,-0.88,-0.33,0.29,0.79,-0.85,-7.26
1777399358049,1995506,-0.87,-0.33,0.29,1.65,-1.40,-8.30
1777399358049,1995516,-0.86,-0.34,0.29,2.81,-2.08,-8.73
1777399358049,1995526,-0.86,-0.34,0.29,4.15,-2.93,-9.46
1777399358049,1995536,-0.85,-0.34,0.30,5.31,-3.78,-10.19
1777399358049,1995546,-0.84,-0.34,0.31,6.16,-4.03,-10.68
1777399358049,1995556,-0.85,-0.34,0.32,7.02,-4.58,-10.93
1777399358049,1995566,-0.85,-0.34,0.33,8.30,-5.37,-10.93
1777399358049,1995576,-0.85,-0.34,0.34,9.40,-5.74,-11.47
1777399358049,1995586,-0.85,-0.34,0.36,9.77,-6.23,-11.96
1777399358050,1995596,-0.86,-0.33,0.37,9.95,-7.08,-11.84
1777399358050,1995606,-0.85,-0.32,0.37,10.07,-7.81,-12.27
1777399358050,1995616,-0.84,-0.32,0.37,9.52,-7.63,-12.51
1777399358050,1995626,-0.85,-0.32,0.37,9.28,-7.51,-11.84
1777399358050,1995636,-0.85,-0.30,0.38,9.16,-7.20,-10.93
1777399358050,1995646,-0.86,-0.31,0.37,8.61,-7.02,-9.70
1777399358050,1995666,-0.87,-0.31,0.38,9.46,-8.18,-10.50
1777399358050,1995686,-0.82,-0.30,0.35,7.45,-8.91,-11.90
1777399358050,1995706,-0.80,-0.30,0.32,5.62,-7.14,-10.31
1777399358051,1995726,-0.79,-0.31,0.31,6.47,-4.46,-8.85
1777399358051,1995736,-0.80,-0.32,0.31,7.08,-4.33,-8.06
1777399358051,1995746,-0.81,-0.32,0.31,8.36,-4.64,-7.51
1777399358051,1995756,-0.82,-0.33,0.31,9.64,-5.43,-7.81
1777399358051,1995766,-0.83,-0.33,0.32,10.80,-6.47,-8.79
1777399358051,1995776,-0.84,-0.33,0.32,12.21,-7.32,-9.89
1777399358051,1995786,-0.85,-0.34,0.33,13.85,-8.00,-10.68
1777399358051,1995796,-0.86,-0.34,0.33,15.26,-8.24,-11.78
1777399358051,1995806,-0.86,-0.34,0.34,15.99,-8.42,-13.00
1777399358052,1995816,-0.86,-0.34,0.35,16.54,-8.61,-13.98
1777399358052,1995826,-0.86,-0.35,0.35,17.40,-8.61,-14.28
1777399358052,1995836,-0.85,-0.35,0.36,18.25,-8.24,-14.59
1777399358052,1995846,-0.85,-0.36,0.37,18.80,-8.30,-15.38
1777399358052,1995856,-0.85,-0.36,0.37,19.47,-8.67,-16.24
1777399358052,1995866,-0.85,-0.35,0.38,19.90,-9.03,-16.97
1777399358052,1995876,-0.85,-0.35,0.39,19.71,-9.70,-17.70
1777399358052,1995886,-0.85,-0.35,0.39,19.71,-10.44,-18.37
1777399358052,1995896,-0.84,-0.35,0.39,19.71,-10.80,-18.74
1777399358053,1995906,-0.83,-0.34,0.39,19.29,-10.56,-18.37
1777399358053,1995916,-0.82,-0.34,0.40,18.31,-9.52,-17.88
1777399358053,1995926,-0.82,-0.34,0.39,17.09,-8.36,-17.33
1777399358053,1995936,-0.81,-0.35,0.39,15.99,-7.75,-16.54
1777399358053,1995946,-0.81,-0.35,0.39,15.50,-7.57,-15.81
1777399358053,1995956,-0.82,-0.36,0.39,15.14,-8.12,-14.89
1777399358053,1995966,-0.82,-0.36,0.38,14.59,-9.52,-14.10
1777399358053,1995976,-0.82,-0.36,0.37,14.22,-9.89,-13.49
1777399358053,1995986,-0.83,-0.37,0.37,14.28,-9.52,-12.76
1777399358054,1996006,-0.84,-0.37,0.38,14.65,-6.47,-11.41
1777399358054,1996026,-0.85,-0.37,0.41,13.12,-5.68,-10.99
1777399358054,1996046,-0.86,-0.36,0.40,11.05,-6.16,-10.13
1777399358054,1996066,-0.87,-0.37,0.39,10.44,-6.47,-10.13
1777399358054,1996076,-0.87,-0.37,0.39,10.44,-6.35,-10.44
1777399358054,1996086,-0.86,-0.37,0.39,10.13,-6.41,-10.31
1777399358054,1996096,-0.86,-0.36,0.38,9.77,-6.10,-10.19
1777399358054,1996106,-0.85,-0.35,0.37,9.40,-5.31,-9.64
1777399358055,1996116,-0.85,-0.35,0.37,9.16,-4.15,-8.85
1777399358055,1996126,-0.85,-0.35,0.38,9.34,-3.36,-8.42
1777399358055,1996136,-0.85,-0.34,0.38,9.46,-2.81,-8.85
1777399358055,1996146,-0.85,-0.34,0.38,8.67,-2.50,-9.22
1777399358055,1996156,-0.84,-0.35,0.37,8.36,-2.69,-8.85
1777399358055,1996166,-0.84,-0.35,0.37,8.67,-2.81,-8.61
1777399358055,1996176,-0.83,-0.35,0.36,9.09,-3.23,-8.18
1777399358055,1996186,-0.83,-0.35,0.37,9.89,-3.42,-7.51
1777399358055,1996196,-0.83,-0.34,0.36,10.99,-3.66,-7.32
1777399358056,1996206,-0.83,-0.33,0.36,10.99,-3.36,-7.20
1777399358056,1996216,-0.83,-0.33,0.35,10.13,-2.62,-6.59
1777399358056,1996226,-0.83,-0.34,0.34,9.64,-1.16,-5.98
1777399358056,1996236,-0.84,-0.34,0.34,10.25,-0.43,-5.68
1777399358056,1996246,-0.84,-0.34,0.34,11.41,-0.24,-5.92
1777399358056,1996256,-0.83,-0.34,0.35,12.51,-0.73,-6.59
1777399358056,1996266,-0.83,-0.34,0.35,13.49,-2.01,-7.14
1777399358056,1996276,-0.83,-0.33,0.36,14.34,-3.54,-7.32
1777399358056,1996286,-0.81,-0.32,0.36,14.77,-5.19,-7.57
1777399358056,1996296,-0.81,-0.32,0.37,14.10,-6.90,-8.24
1777399358057,1996306,-0.80,-0.31,0.36,13.06,-9.52,-8.91
1777399358057,1996316,-0.79,-0.32,0.35,13.06,-12.70,-9.16
1777399358057,1996326,-0.78,-0.30,0.35,13.67,-15.50,-9.70
1777399358057,1996336,-0.78,-0.30,0.35,13.49,-19.35,-12.76
1777399358057,1996356,-0.75,-0.25,0.39,7.69,-34.18,-17.46
1777399358075,1996376,-0.67,-0.23,0.31,-4.03,-48.22,-24.05
1777399358095,1996396,-0.60,-0.14,0.26,-10.62,-55.97,-40.34
1777399358115,1996416,-0.54,-0.00,0.22,-19.96,-64.64,-57.50
1777399358125,1996426,-0.52,-0.03,0.20,-27.95,-71.66,-67.02
1777399358135,1996436,-0.45,-0.07,0.18,-31.86,-78.06,-78.80
1777399358145,1996446,-0.41,-0.04,0.17,-30.21,-86.79,-93.08
1777399358155,1996456,-0.32,-0.02,0.18,-25.76,-98.39,-100.89
1777399358165,1996466,-0.27,-0.06,0.15,-22.58,-109.50,-103.76
1777399358175,1996476,-0.16,-0.06,0.14,-14.16,-114.26,-103.52
1777399358185,1996486,-0.12,0.04,0.24,-7.75,-110.53,-99.30
1777399358195,1996496,-0.13,-0.04,0.29,-9.70,-104.92,-87.77
1777399358205,1996506,-0.27,-0.18,0.40,-6.29,-91.92,-78.80
1777399358215,1996516,-0.44,-0.31,0.63,7.51,-70.62,-77.27
1777399358225,1996526,-0.63,-0.45,0.93,20.32,-53.59,-78.74
1777399358235,1996536,-0.91,-0.73,1.19,22.71,-51.76,-78.19
1777399358245,1996546,-1.26,-1.32,1.29,14.71,-70.43,-86.73
1777399358255,1996556,-1.46,-2.30,0.83,9.64,-110.66,-116.70
1777399358265,1996566,-1.90,-3.74,0.80,26.12,-155.52,-163.09
1777399358275,1996576,-2.06,-4.00,0.94,65.86,-191.22,-216.74
1777399358285,1996586,-1.77,-4.00,1.33,84.96,-205.08,-260.07
1777399358295,1996596,-1.41,-4.00,1.92,55.11,-197.45,-249.82
1777399358305,1996606,-1.15,-4.00,2.96,-8.18,-144.71,-180.73
1777399358315,1996616,-0.92,-4.00,3.96,-125.73,-59.94,-70.37
1777399358325,1996626,-0.98,-4.00,4.00,-295.53,25.15,49.26
1777399358335,1996636,-1.08,-4.00,4.00,-470.46,104.86,152.77
1777399358345,1996646,-1.05,-3.18,4.00,-600.40,189.45,216.80
1777399358355,1996656,-0.89,-1.98,3.56,-681.03,254.88,240.11
1777399358365,1996666,-0.84,-1.22,3.12,-703.74,286.44,221.98
1777399358375,1996676,-0.75,-0.72,2.84,-674.07,267.09,70.56
1777399358395,1996696,-0.20,-0.19,2.55,-356.51,20.69,-151.06
1777399358415,1996716,1.09,1.87,2.66,-226.44,-138.73,-200.01
1777399358435,1996736,1.86,2.30,2.01,-235.96,-66.35,22.40
1777399358455,1996756,0.72,2.27,1.66,-254.52,174.44,186.89
1777399358466,1996766,-0.05,2.03,1.64,-247.38,216.98,176.45
1777399358475,1996776,-0.32,2.10,1.24,-211.73,148.19,126.46
1777399358485,1996786,-0.10,2.20,0.46,-175.35,38.94,82.15
1777399358495,1996796,0.23,2.53,0.10,-141.24,-16.60,64.51
1777399358505,1996806,0.85,3.09,-0.08,-133.00,-33.26,108.09
1777399358515,1996816,1.47,1.42,-0.64,-163.02,-10.07,204.16
1777399358525,1996826,-0.07,0.39,0.37,-93.20,61.34,204.71
1777399358535,1996836,-1.00,0.11,0.58,26.92,16.85,112.92
1777399358545,1996846,-0.92,1.14,0.55,116.82,-75.32,-9.95
1777399358555,1996856,-0.33,1.11,-0.10,121.40,-126.04,-50.23
1777399358565,1996866,-0.26,0.85,-0.13,108.40,-67.99,-32.23
1777399358575,1996876,-0.55,0.56,0.26,108.52,9.22,5.98
1777399358585,1996886,-0.75,0.44,0.46,93.81,23.13,31.19
1777399358595,1996896,-0.75,0.20,0.27,58.96,-1.22,36.01
1777399358605,1996906,-0.72,0.10,0.04,34.18,-21.06,25.39
1777399358615,1996916,-0.60,0.16,-0.17,28.56,-32.53,18.01
1777399358625,1996926,-0.56,0.05,-0.36,26.43,-38.15,19.17
1777399358635,1996936,-0.58,-0.01,-0.45,33.33,-38.82,17.52
1777399358645,1996946,-0.65,-0.15,-0.44,48.46,-40.34,11.84
1777399358655,1996956,-0.70,-0.22,-0.46,70.37,-47.36,-0.55
1777399358665,1996966,-0.72,-0.24,-0.49,95.46,-50.90,-14.83
1777399358675,1996976,-0.65,-0.28,-0.42,121.70,-40.47,-25.57
1777399358685,1996986,-0.64,-0.36,-0.22,146.30,-22.40,-34.42
1777399358695,1996996,-0.70,-0.46,0.01,163.64,-14.28,-42.60
1777399358705,1997006,-0.70,-0.50,0.16,172.00,-21.42,-45.23
1777399358715,1997016,-0.73,-0.53,0.20,170.53,-31.07,-41.20
1777399358725,1997026,-0.73,-0.44,0.18,159.48,-35.52,-25.02
1777399358745,1997046,-0.76,-0.66,0.03,121.58,-9.40,-17.21
1777399358765,1997066,-0.59,-1.04,-0.04,139.47,-19.41,-45.59
1777399358785,1997086,-0.25,-0.98,-0.21,142.21,-61.83,-57.07
1777399358805,1997106,-0.42,-0.79,0.01,136.29,-51.21,-17.88
1777399358815,1997116,-0.56,-0.97,-0.15,119.26,-26.98,4.09
1777399358825,1997126,-0.73,-1.12,-0.17,107.48,-6.29,14.04
1777399358835,1997136,-0.91,-1.12,-0.15,110.05,0.85,9.58
1777399358845,1997146,-0.97,-1.25,-0.13,117.55,-4.03,-0.49
1777399358855,1997156,-1.01,-1.30,-0.06,130.31,-18.19,-19.17
1777399358865,1997166,-0.93,-1.32,0.01,144.59,-36.50,-40.04
1777399358875,1997176,-0.80,-1.22,0.14,155.76,-50.78,-58.65
1777399358885,1997186,-0.67,-1.11,0.24,156.49,-58.59,-68.36
1777399358895,1997196,-0.57,-1.03,0.32,145.08,-57.68,-64.76
1777399358905,1997206,-0.52,-1.01,0.34,121.46,-52.12,-50.78
1777399358915,1997216,-0.55,-1.07,0.29,95.21,-47.97,-33.51
1777399358925,1997226,-0.63,-1.10,0.20,77.70,-45.23,-19.53
1777399358935,1997236,-0.70,-1.19,0.13,72.51,-38.09,-13.37
1777399358945,1997246,-0.72,-1.24,0.12,80.57,-29.66,-17.15
1777399358955,1997256,-0.71,-1.24,0.20,92.71,-26.55,-27.04
1777399358965,1997266,-0.65,-1.20,0.30,100.71,-32.65,-35.52
1777399358975,1997276,-0.59,-1.17,0.37,100.22,-43.33,-40.77
