host_time_ms,arduino_time_ms,ax,ay,az,gx,gy,gz
1777399342450,1976206,-0.45,-0.91,-0.27,95.83,6.77,26.98
1777399342450,1976216,-0.57,-0.97,-0.14,94.42,13.12,31.07
1777399342450,1976226,-0.65,-1.01,-0.04,93.69,5.37,24.84
1777399342451,1976236,-0.68,-1.04,0.02,93.57,-13.92,12.33
1777399342451,1976246,-0.62,-1.08,0.03,94.12,-38.70,-3.05
1777399342451,1976256,-0.52,-1.09,0.02,95.34,-61.34,-18.07
1777399342451,1976266,-0.44,-1.07,-0.01,97.66,-76.97,-26.18
1777399342452,1976276,-0.41,-1.04,-0.02,99.06,-80.75,-23.86
1777399342452,1976286,-0.43,-1.02,-0.02,97.05,-73.61,-13.73
1777399342452,1976296,-0.50,-1.02,-0.04,91.74,-56.52,-2.14
1777399342452,1976306,-0.58,-1.01,-0.03,84.90,-0.98,10.68
1777399342453,1976326,-0.67,-1.10,0.09,68.91,7.02,6.10
1777399342453,1976346,-0.56,-1.10,0.15,60.79,-15.63,-7.20
1777399342453,1976366,-0.44,-1.06,0.11,56.40,-29.79,-9.34
1777399342454,1976386,-0.47,-1.02,0.13,51.45,-25.02,2.69
1777399342454,1976396,-0.51,-1.00,0.15,48.22,-18.07,8.30
1777399342454,1976406,-0.54,-0.99,0.18,43.15,-10.74,11.84
1777399342455,1976416,-0.57,-0.99,0.18,37.54,-5.31,13.49
1777399342455,1976426,-0.56,-0.99,0.20,32.78,-2.50,12.70
1777399342456,1976436,-0.57,-0.99,0.21,29.60,-3.23,11.29
1777399342456,1976446,-0.57,-0.98,0.23,28.38,-5.80,9.46
1777399342456,1976456,-0.56,-0.95,0.25,27.95,-8.24,6.16
1777399342456,1976466,-0.54,-0.95,0.28,26.67,-10.80,2.81
1777399342457,1976476,-0.52,-0.93,0.29,24.90,-14.22,0.43
1777399342457,1976486,-0.50,-0.91,0.29,23.01,-16.97,-0.31
1777399342457,1976496,-0.49,-0.88,0.30,20.81,-16.48,0.79
1777399342457,1976506,-0.48,-0.85,0.30,16.78,-13.73,2.87
1777399342458,1976516,-0.48,-0.82,0.29,10.86,-10.31,5.07
1777399342458,1976526,-0.47,-0.81,0.26,4.88,-7.39,8.24
1777399342458,1976536,-0.48,-0.81,0.23,1.04,-4.76,12.51
1777399342458,1976546,-0.50,-0.81,0.22,0.18,-1.16,15.44
1777399342458,1976556,-0.51,-0.80,0.22,0.55,1.34,15.14
1777399342459,1976566,-0.52,-0.80,0.23,1.16,-0.12,12.45
1777399342459,1976576,-0.52,-0.80,0.22,2.99,-4.94,9.03
1777399342459,1976586,-0.53,-0.79,0.21,5.86,-10.38,5.49
1777399342459,1976596,-0.53,-0.77,0.20,7.93,-14.34,2.62
1777399342460,1976606,-0.53,-0.77,0.20,9.03,-15.20,1.59
1777399342460,1976616,-0.55,-0.76,0.20,9.64,-13.43,2.56
1777399342460,1976626,-0.58,-0.77,0.20,10.31,-9.22,3.54
1777399342460,1976636,-0.59,-0.76,0.22,10.44,-3.66,3.42
1777399342461,1976646,-0.61,-0.76,0.23,9.16,0.24,3.36
1777399342461,1976666,-0.60,-0.75,0.23,5.80,6.77,4.52
1777399342461,1976686,-0.60,-0.75,0.23,5.74,9.40,2.69
1777399342461,1976706,-0.58,-0.75,0.25,6.77,6.59,-2.44
1777399342461,1976726,-0.53,-0.73,0.21,4.27,-1.89,-5.00
1777399342462,1976736,-0.51,-0.72,0.19,3.78,-3.48,-3.54
1777399342462,1976746,-0.50,-0.72,0.17,3.78,-2.62,-1.34
1777399342462,1976756,-0.49,-0.71,0.17,4.21,0.31,1.65
1777399342462,1976766,-0.48,-0.72,0.17,5.07,3.78,5.19
1777399342462,1976776,-0.48,-0.73,0.18,6.53,6.29,8.61
1777399342463,1976786,-0.48,-0.73,0.19,8.36,7.87,11.29
1777399342463,1976796,-0.48,-0.74,0.22,9.03,8.42,12.82
1777399342463,1976806,-0.50,-0.75,0.24,8.73,6.04,14.28
1777399342463,1976816,-0.50,-0.75,0.25,9.03,1.65,15.50
1777399342463,1976826,-0.52,-0.75,0.27,10.07,-4.27,16.54
1777399342464,1976836,-0.52,-0.73,0.27,11.23,-10.38,16.91
1777399342464,1976846,-0.53,-0.72,0.29,12.33,-15.26,17.46
1777399342464,1976856,-0.54,-0.70,0.29,13.31,-18.86,19.10
1777399342464,1976866,-0.56,-0.69,0.29,13.49,-20.81,21.00
1777399342465,1976876,-0.57,-0.68,0.29,12.57,-20.32,23.19
1777399342465,1976886,-0.59,-0.67,0.29,9.64,-19.10,25.27
1777399342465,1976896,-0.61,-0.67,0.29,5.86,-18.43,27.40
1777399342465,1976906,-0.62,-0.68,0.27,2.62,-18.37,29.60
1777399342465,1976916,-0.62,-0.70,0.26,0.55,-18.55,30.82
1777399342466,1976926,-0.63,-0.70,0.25,-0.49,-19.41,31.43
1777399342466,1976936,-0.63,-0.71,0.23,-0.31,-20.14,32.65
1777399342466,1976946,-0.65,-0.72,0.23,0.85,-20.87,33.57
1777399342466,1976956,-0.68,-0.72,0.24,3.66,-21.85,33.14
1777399342466,1976966,-0.70,-0.72,0.25,7.08,-22.28,31.31
1777399342467,1976976,-0.72,-0.72,0.28,9.70,-23.80,29.11
1777399342467,1976986,-0.73,-0.73,0.29,11.41,-26.86,26.43
1777399342467,1976996,-0.73,-0.73,0.31,12.02,-46.20,20.02
1777399342467,1977016,-0.72,-0.71,0.32,6.10,-40.65,17.52
1777399342467,1977036,-0.75,-0.71,0.31,4.03,-39.86,18.49
1777399342468,1977056,-0.72,-0.70,0.31,2.26,-33.02,18.74
1777399342468,1977076,-0.71,-0.69,0.30,0.06,-24.84,21.48
1777399342468,1977086,-0.70,-0.68,0.29,-0.37,-19.90,23.44
1777399342468,1977096,-0.69,-0.68,0.27,0.06,-14.95,25.57
1777399342468,1977106,-0.69,-0.68,0.26,0.79,-10.62,28.08
1777399342469,1977116,-0.70,-0.68,0.26,2.44,-6.29,30.27
1777399342469,1977126,-0.74,-0.68,0.30,3.91,-0.73,30.52
1777399342469,1977136,-0.76,-0.67,0.35,3.23,3.72,28.38
1777399342469,1977146,-0.78,-0.65,0.37,-0.85,4.03,24.60
1777399342469,1977156,-0.78,-0.64,0.37,-6.47,1.16,21.00
1777399342470,1977166,-0.76,-0.64,0.36,-11.41,-3.30,18.74
1777399342470,1977176,-0.76,-0.63,0.33,-13.85,-7.39,17.21
1777399342470,1977186,-0.75,-0.62,0.30,-13.67,-9.58,16.42
1777399342470,1977196,-0.74,-0.62,0.27,-12.21,-8.85,16.42
1777399342470,1977206,-0.72,-0.61,0.26,-10.01,-6.04,16.97
1777399342470,1977216,-0.71,-0.61,0.25,-7.69,-1.22,18.37
1777399342471,1977226,-0.72,-0.60,0.25,-5.49,4.15,20.75
1777399342471,1977236,-0.75,-0.60,0.27,-3.30,8.91,23.74
1777399342471,1977246,-0.79,-0.61,0.31,-0.79,11.54,24.48
1777399342471,1977256,-0.82,-0.61,0.34,0.79,10.44,21.85
1777399342471,1977266,-0.83,-0.60,0.36,0.06,6.29,16.36
1777399342472,1977276,-0.84,-0.60,0.36,-2.32,-0.85,10.74
1777399342472,1977286,-0.82,-0.60,0.33,-3.11,-8.85,6.59
1777399342472,1977296,-0.80,-0.59,0.30,-2.20,-14.83,4.15
1777399342472,1977306,-0.77,-0.58,0.27,-0.24,-17.52,3.05
1777399342472,1977316,-0.75,-0.57,0.25,1.53,-15.87,3.48
1777399342472,1977326,-0.74,-0.57,0.26,2.50,-11.60,5.00
1777399342473,1977336,-0.76,-0.57,0.27,3.48,-7.45,7.57
1777399342473,1977356,-0.80,-0.56,0.31,2.93,-4.21,10.44
1777399342473,1977376,-0.81,-0.55,0.29,-1.04,-7.26,7.57
1777399342473,1977396,-0.75,-0.55,0.25,-1.53,-6.35,6.10
1777399342473,1977416,-0.74,-0.55,0.26,-0.12,-4.21,6.41
1777399342473,1977426,-0.74,-0.55,0.26,0.67,-5.49,7.26
1777399342474,1977436,-0.75,-0.55,0.28,1.22,-8.06,8.00
1777399342474,1977446,-0.76,-0.55,0.28,1.34,-11.29,8.42
1777399342474,1977456,-0.77,-0.55,0.29,1.28,-13.79,8.24
1777399342474,1977466,-0.76,-0.54,0.28,0.73,-15.20,7.63
1777399342474,1977476,-0.76,-0.54,0.28,-0.06,-15.01,6.41
1777399342475,1977486,-0.76,-0.54,0.27,-0.92,-12.76,5.62
1777399342475,1977496,-0.75,-0.55,0.26,-1.77,-9.03,5.62
1777399342475,1977506,-0.75,-0.55,0.27,-2.32,-5.49,6.29
1777399342475,1977516,-0.76,-0.56,0.29,-2.56,-3.72,7.45
1777399342475,1977526,-0.78,-0.57,0.30,-2.44,-4.64,8.12
1777399342475,1977536,-0.78,-0.57,0.31,-1.89,-7.93,7.32
1777399342476,1977546,-0.78,-0.57,0.30,-1.53,-12.15,6.10
1777399342476,1977556,-0.76,-0.56,0.30,-1.16,-15.32,5.31
1777399342476,1977566,-0.75,-0.55,0.28,-0.92,-16.85,5.68
1777399342476,1977576,-0.75,-0.55,0.29,-0.92,-15.69,6.59
1777399342476,1977586,-0.76,-0.55,0.30,-0.67,-13.18,7.39
1777399342476,1977596,-0.76,-0.54,0.31,-0.43,-10.50,7.45
1777399342477,1977606,-0.78,-0.54,0.32,-0.79,-8.18,6.77
1777399342477,1977616,-0.79,-0.55,0.34,-1.34,-6.71,5.25
1777399342477,1977626,-0.78,-0.55,0.34,-1.95,-6.71,3.17
1777399342477,1977636,-0.78,-0.56,0.34,-2.69,-8.24,1.28
1777399342477,1977646,-0.78,-0.56,0.34,-2.69,-10.38,0.43
1777399342477,1977656,-0.76,-0.56,0.34,-1.83,-12.63,0.00
1777399342478,1977666,-0.75,-0.55,0.33,-1.34,-13.67,-0.43
1777399342478,1977676,-0.74,-0.56,0.32,-1.53,-13.06,-0.43
1777399342478,1977686,-0.74,-0.56,0.33,-1.40,-11.78,0.31
1777399342478,1977706,-0.75,-0.54,0.35,-2.32,-9.64,-0.55
1777399342478,1977726,-0.75,-0.54,0.36,-3.85,-9.95,-2.38
1777399342479,1977746,-0.72,-0.54,0.35,-5.25,-9.95,-2.69
1777399342479,1977766,-0.71,-0.54,0.34,-5.74,-8.79,-1.59
1777399342479,1977776,-0.70,-0.55,0.34,-6.10,-8.36,-1.22
1777399342479,1977786,-0.71,-0.55,0.34,-5.80,-8.54,-0.73
1777399342479,1977796,-0.72,-0.55,0.35,-4.88,-9.40,-0.24
1777399342479,1977806,-0.73,-0.54,0.37,-3.72,-10.44,-0.24
1777399342480,1977816,-0.73,-0.53,0.37,-3.72,-11.78,-1.28
1777399342480,1977826,-0.73,-0.53,0.37,-4.46,-13.12,-2.56
1777399342480,1977836,-0.72,-0.52,0.36,-4.76,-13.49,-2.99
1777399342480,1977846,-0.72,-0.53,0.36,-4.70,-11.96,-2.81
1777399342480,1977856,-0.72,-0.53,0.36,-4.64,-10.44,-2.62
1777399342480,1977866,-0.72,-0.53,0.37,-4.58,-9.58,-1.83
1777399342481,1977876,-0.72,-0.53,0.37,-4.58,-9.22,-0.67
1777399342481,1977886,-0.74,-0.53,0.38,-4.64,-9.64,0.31
1777399342481,1977896,-0.75,-0.54,0.39,-3.97,-10.86,0.98
1777399342481,1977906,-0.76,-0.53,0.39,-2.99,-12.76,0.43
1777399342481,1977916,-0.76,-0.53,0.39,-2.62,-14.40,-1.10
1777399342481,1977926,-0.76,-0.53,0.39,-2.87,-15.87,-2.87
1777399342482,1977936,-0.75,-0.54,0.39,-3.23,-17.09,-4.09
1777399342482,1977946,-0.73,-0.53,0.39,-3.60,-17.94,-4.76
1777399342482,1977956,-0.72,-0.52,0.38,-4.46,-18.62,-4.15
1777399342482,1977966,-0.71,-0.52,0.37,-5.55,-18.49,-2.44
1777399342482,1977976,-0.71,-0.52,0.37,-6.29,-17.33,-0.12
1777399342482,1977986,-0.73,-0.52,0.38,-6.90,-15.56,2.75
1777399342482,1977996,-0.74,-0.53,0.38,-7.93,-14.10,5.43
1777399342483,1978006,-0.76,-0.53,0.39,-8.12,-13.24,7.20
1777399342483,1978016,-0.77,-0.52,0.39,-8.24,-12.76,8.00
1777399342483,1978026,-0.79,-0.53,0.40,-8.85,-12.45,8.24
1777399342483,1978046,-0.80,-0.52,0.40,-12.70,-11.54,5.55
1777399342483,1978066,-0.80,-0.52,0.36,-15.32,-12.15,5.37
1777399342483,1978086,-0.82,-0.50,0.36,-13.31,-11.78,6.53
1777399342484,1978106,-0.82,-0.48,0.37,-12.51,-10.44,5.92
1777399342484,1978116,-0.80,-0.46,0.35,-13.73,-9.58,4.15
1777399342484,1978126,-0.79,-0.47,0.34,-14.89,-8.36,2.50
1777399342484,1978136,-0.76,-0.48,0.33,-15.20,-7.51,1.28
1777399342484,1978146,-0.73,-0.48,0.32,-15.93,-7.51,-0.49
1777399342484,1978156,-0.70,-0.50,0.30,-16.91,-9.77,-1.53
1777399342485,1978166,-0.68,-0.52,0.28,-16.36,-13.79,-1.65
1777399342485,1978176,-0.67,-0.53,0.28,-14.28,-17.94,-1.46
1777399342485,1978186,-0.67,-0.53,0.28,-12.02,-21.61,-1.16
1777399342485,1978196,-0.67,-0.53,0.28,-9.95,-23.44,-0.43
1777399342485,1978206,-0.69,-0.53,0.31,-8.48,-23.56,0.00
1777399342485,1978216,-0.69,-0.52,0.33,-8.18,-23.56,0.00
1777399342486,1978226,-0.71,-0.52,0.36,-8.61,-24.84,0.18
1777399342486,1978236,-0.72,-0.53,0.37,-8.91,-27.04,1.40
1777399342486,1978246,-0.73,-0.53,0.38,-9.58,-28.87,3.23
1777399342486,1978256,-0.74,-0.54,0.39,-10.38,-30.09,5.25
1777399342486,1978266,-0.75,-0.53,0.39,-11.72,-30.52,7.39
1777399342486,1978276,-0.78,-0.52,0.40,-11.54,-29.11,10.25
1777399342487,1978286,-0.80,-0.51,0.42,-11.17,-25.57,13.24
1777399342487,1978296,-0.83,-0.51,0.44,-12.08,-20.87,16.24
1777399342487,1978306,-0.86,-0.49,0.45,-12.82,-15.87,18.49
1777399342487,1978316,-0.89,-0.48,0.47,-15.63,-10.19,18.49
1777399342487,1978326,-0.90,-0.47,0.46,-20.08,-5.43,16.97
1777399342487,1978336,-0.90,-0.46,0.44,-24.66,-1.53,15.14
1777399342487,1978346,-0.88,-0.45,0.41,-27.77,1.40,14.10
1777399342488,1978356,-0.87,-0.44,0.37,-29.17,3.97,13.37
1777399342488,1978366,-0.86,-0.44,0.35,-29.24,5.74,12.51
1777399342488,1978376,-0.85,-0.43,0.32,-27.95,6.16,9.58
1777399342488,1978396,-0.82,-0.42,0.27,-18.55,2.87,5.98
1777399342488,1978416,-0.76,-0.41,0.22,-9.89,2.08,3.36
1777399342488,1978436,-0.78,-0.41,0.23,-2.38,2.62,1.65
1777399342489,1978456,-0.80,-0.43,0.25,3.85,1.22,0.12
1777399342489,1978466,-0.81,-0.43,0.27,5.86,-0.73,-1.53
1777399342489,1978476,-0.81,-0.44,0.28,7.39,-3.91,-3.42
1777399342489,1978486,-0.81,-0.44,0.27,8.61,-7.20,-5.49
1777399342489,1978496,-0.80,-0.44,0.27,9.95,-9.58,-6.65
1777399342489,1978506,-0.80,-0.45,0.27,11.78,-10.38,-6.84
1777399342489,1978516,-0.79,-0.44,0.28,13.61,-9.64,-7.20
1777399342489,1978526,-0.79,-0.45,0.29,14.77,-8.12,-7.26
1777399342490,1978536,-0.80,-0.46,0.30,15.38,-6.35,-6.90
1777399342490,1978546,-0.81,-0.47,0.32,15.63,-4.76,-6.96
1777399342490,1978556,-0.82,-0.47,0.33,15.20,-4.03,-7.93
1777399342490,1978566,-0.82,-0.47,0.34,13.85,-4.58,-8.85
1777399342490,1978576,-0.82,-0.48,0.34,12.63,-5.92,-8.91
1777399342490,1978586,-0.82,-0.48,0.34,12.15,-7.26,-8.79
1777399342491,1978596,-0.81,-0.48,0.33,12.02,-7.81,-8.79
1777399342491,1978606,-0.81,-0.48,0.33,11.96,-7.51,-8.54
1777399342491,1978616,-0.81,-0.48,0.34,11.66,-6.53,-7.81
1777399342491,1978626,-0.81,-0.48,0.34,11.29,-5.25,-7.08
1777399342491,1978636,-0.81,-0.47,0.34,10.50,-3.85,-6.29
1777399342491,1978646,-0.82,-0.46,0.34,9.64,-1.95,-5.31
1777399342491,1978656,-0.82,-0.46,0.34,8.79,0.12,-4.39
1777399342491,1978666,-0.83,-0.46,0.34,8.00,2.01,-4.21
1777399342492,1978676,-0.83,-0.46,0.34,7.02,3.42,-3.91
1777399342492,1978686,-0.83,-0.46,0.34,5.98,3.97,-3.91
1777399342492,1978696,-0.82,-0.46,0.33,5.07,3.97,-4.03
1777399342492,1978706,-0.82,-0.46,0.33,4.88,3.11,-4.21
1777399342492,1978716,-0.82,-0.45,0.32,5.13,1.40,-4.64
1777399342492,1978736,-0.79,-0.45,0.30,5.31,-4.27,-7.20
1777399342492,1978756,-0.79,-0.45,0.29,6.84,-5.13,-7.93
1777399342493,1978776,-0.79,-0.46,0.31,7.51,-5.43,-6.96
1777399342493,1978796,-0.81,-0.46,0.33,7.87,-5.00,-5.68
1777399342493,1978806,-0.81,-0.47,0.34,6.77,-5.00,-5.92
1777399342493,1978816,-0.81,-0.47,0.34,6.10,-5.13,-6.29
1777399342493,1978826,-0.81,-0.47,0.34,5.19,-5.62,-6.84
1777399342493,1978836,-0.80,-0.47,0.34,4.27,-6.23,-7.14
1777399342493,1978846,-0.80,-0.47,0.33,3.23,-6.84,-7.32
1777399342493,1978856,-0.79,-0.47,0.33,2.38,-7.20,-7.69
1777399342494,1978866,-0.79,-0.47,0.33,1.89,-7.14,-7.20
1777399342494,1978876,-0.79,-0.47,0.33,1.28,-6.77,-6.04
1777399342494,1978886,-0.79,-0.46,0.32,1.04,-6.47,-4.76
1777399342494,1978896,-0.80,-0.47,0.33,1.10,-5.80,-4.09
1777399342494,1978906,-0.81,-0.46,0.34,1.28,-5.13,-4.15
1777399342494,1978916,-0.82,-0.46,0.34,1.28,-5.00,-5.00
1777399342495,1978926,-0.81,-0.46,0.35,1.10,-5.49,-5.98
1777399342495,1978936,-0.81,-0.46,0.35,0.79,-6.47,-6.59
1777399342495,1978946,-0.81,-0.45,0.34,0.12,-7.32,-6.84
1777399342495,1978956,-0.80,-0.45,0.33,-0.43,-7.26,-6.84
1777399342495,1978966,-0.80,-0.45,0.32,-0.61,-6.23,-6.84
1777399342495,1978976,-0.79,-0.45,0.32,-0.31,-5.43,-6.71
1777399342495,1978986,-0.80,-0.45,0.31,0.61,-4.94,-6.04
1777399342496,1978996,-0.80,-0.45,0.31,1.53,-4.88,-5.43
1777399342496,1979006,-0.81,-0.45,0.32,2.69,-5.00,-5.19
1777399342496,1979016,-0.81,-0.45,0.32,3.72,-5.07,-5.55
1777399342496,1979026,-0.81,-0.45,0.32,3.97,-5.37,-6.23
1777399342496,1979036,-0.81,-0.44,0.32,4.15,-5.80,-6.90
1777399342496,1979046,-0.81,-0.44,0.32,4.52,-6.47,-7.45
1777399342496,1979056,-0.81,-0.45,0.32,4.88,-7.08,-7.93
1777399342496,1979066,-0.80,-0.45,0.32,5.68,-7.39,-8.67
1777399342497,1979086,-0.80,-0.44,0.32,7.87,-7.32,-8.24
1777399342497,1979106,-0.80,-0.45,0.32,9.03,-6.65,-7.63
1777399342497,1979126,-0.80,-0.45,0.33,10.13,-5.62,-7.20
1777399342497,1979146,-0.81,-0.45,0.34,11.60,-6.35,-8.00
1777399342497,1979156,-0.81,-0.46,0.34,12.21,-7.02,-8.48
1777399342497,1979166,-0.81,-0.46,0.34,12.70,-7.69,-9.28
1777399342497,1979176,-0.81,-0.46,0.34,13.37,-8.24,-10.13
1777399342498,1979186,-0.81,-0.46,0.34,13.92,-8.54,-11.17
1777399342498,1979196,-0.80,-0.46,0.34,14.47,-8.73,-12.21
1777399342498,1979206,-0.80,-0.46,0.34,15.08,-8.36,-12.57
1777399342498,1979216,-0.79,-0.46,0.34,15.38,-8.06,-12.63
1777399342498,1979226,-0.78,-0.46,0.34,15.93,-7.39,-12.21
1777399342498,1979236,-0.78,-0.45,0.34,16.85,-6.16,-11.78
1777399342498,1979246,-0.77,-0.45,0.35,17.70,-4.76,-11.66
1777399342499,1979256,-0.76,-0.44,0.34,17.70,-3.85,-11.84
1777399342499,1979266,-0.76,-0.45,0.34,17.15,-3.42,-12.51
1777399342499,1979276,-0.76,-0.45,0.34,17.46,-3.54,-13.67
1777399342500,1979286,-0.76,-0.45,0.34,18.62,-4.39,-15.08
1777399342501,1979296,-0.75,-0.45,0.35,19.53,-5.92,-16.85
1777399342501,1979306,-0.74,-0.46,0.35,19.78,-8.42,-18.31
1777399342502,1979316,-0.73,-0.47,0.35,20.45,-10.38,-19.35
1777399342502,1979326,-0.72,-0.47,0.35,21.30,-11.17,-20.14
1777399342503,1979336,-0.71,-0.47,0.35,22.03,-10.80,-20.32
1777399342503,1979346,-0.70,-0.47,0.35,22.71,-9.64,-18.80
1777399342503,1979356,-0.72,-0.48,0.37,23.50,-8.12,-16.54
1777399342503,1979366,-0.74,-0.48,0.39,23.99,-6.71,-14.95
1777399342503,1979376,-0.75,-0.49,0.40,23.86,-6.10,-14.22
1777399342504,1979386,-0.78,-0.50,0.42,24.05,-6.59,-14.28
1777399342504,1979396,-0.79,-0.50,0.44,24.90,-8.48,-15.38
1777399342504,1979406,-0.80,-0.50,0.45,24.96,-10.93,-17.27
1777399342504,1979426,-0.80,-0.50,0.46,24.60,-14.77,-20.51
1777399342505,1979446,-0.79,-0.50,0.46,23.80,-11.05,-20.75
1777399342505,1979466,-0.77,-0.48,0.45,21.97,-4.58,-20.02
1777399342506,1979486,-0.77,-0.47,0.45,19.71,0.73,-17.88
1777399342507,1979496,-0.76,-0.46,0.44,18.92,2.08,-18.43
1777399342507,1979506,-0.75,-0.47,0.43,18.31,2.62,-19.53
1777399342507,1979516,-0.75,-0.47,0.42,18.80,1.95,-19.65
1777399342507,1979526,-0.74,-0.46,0.41,20.02,1.04,-19.84
1777399342507,1979536,-0.74,-0.46,0.41,20.94,0.43,-20.51
1777399342508,1979546,-0.74,-0.46,0.41,22.34,0.18,-20.69
1777399342509,1979556,-0.73,-0.46,0.41,23.74,0.85,-20.51
1777399342510,1979566,-0.73,-0.45,0.42,24.48,2.56,-20.02
1777399342510,1979576,-0.74,-0.46,0.42,24.54,4.64,-19.47
1777399342511,1979586,-0.74,-0.45,0.42,24.48,6.59,-18.92
1777399342511,1979596,-0.74,-0.46,0.42,24.41,8.06,-18.43
1777399342511,1979606,-0.76,-0.47,0.43,24.96,8.85,-18.13
1777399342511,1979616,-0.76,-0.47,0.43,26.25,8.73,-18.92
1777399342511,1979626,-0.76,-0.47,0.43,27.28,7.93,-20.32
1777399342511,1979636,-0.75,-0.47,0.43,28.08,7.08,-21.67
1777399342511,1979646,-0.74,-0.47,0.43,29.11,6.35,-22.46
1777399342511,1979656,-0.73,-0.47,0.42,30.40,5.80,-23.19
1777399342511,1979666,-0.73,-0.47,0.42,32.10,5.92,-23.68
1777399342511,1979676,-0.74,-0.47,0.44,34.00,6.65,-23.62
1777399342512,1979686,-0.74,-0.48,0.46,35.40,6.71,-23.93
1777399342512,1979696,-0.74,-0.48,0.46,36.07,6.04,-24.66
1777399342512,1979706,-0.74,-0.49,0.46,36.68,5.74,-24.84
1777399342512,1979716,-0.73,-0.49,0.47,37.23,5.92,-24.60
1777399342512,1979726,-0.73,-0.49,0.48,37.35,5.74,-23.68
1777399342512,1979736,-0.74,-0.49,0.48,37.41,5.80,-22.71
1777399342513,1979746,-0.74,-0.50,0.48,37.48,6.35,-22.22
1777399342513,1979756,-0.74,-0.50,0.49,37.41,7.26,-23.13
1777399342513,1979776,-0.73,-0.49,0.49,34.61,8.79,-22.34
1777399342514,1979796,-0.73,-0.49,0.49,32.90,10.07,-20.63
1777399342515,1979816,-0.75,-0.51,0.50,30.76,11.05,-19.17
1777399342515,1979836,-0.74,-0.50,0.49,29.24,10.07,-20.08
1777399342517,1979846,-0.73,-0.50,0.48,28.44,9.46,-19.78
1777399342517,1979856,-0.72,-0.50,0.47,27.77,9.09,-18.62
1777399342517,1979866,-0.73,-0.50,0.47,27.53,9.58,-17.40
1777399342517,1979876,-0.74,-0.50,0.47,27.34,10.31,-16.91
1777399342517,1979886,-0.73,-0.50,0.47,27.04,10.80,-16.72
1777399342518,1979896,-0.73,-0.49,0.46,26.92,11.05,-15.93
1777399342518,1979906,-0.74,-0.50,0.47,26.18,11.23,-15.32
1777399342518,1979916,-0.75,-0.51,0.47,25.94,10.44,-14.83
1777399342518,1979926,-0.74,-0.49,0.47,25.94,9.03,-14.59
1777399342518,1979936,-0.74,-0.49,0.47,24.66,7.63,-14.34
1777399342518,1979946,-0.73,-0.49,0.45,22.95,6.77,-14.04
1777399342518,1979956,-0.72,-0.49,0.44,21.79,7.32,-13.24
1777399342518,1979966,-0.71,-0.48,0.43,20.94,9.09,-11.90
1777399342518,1979976,-0.72,-0.48,0.43,19.59,10.56,-10.25
1777399342518,1979986,-0.74,-0.49,0.42,18.49,11.17,-8.36
1777399342519,1979996,-0.76,-0.49,0.42,18.25,10.80,-6.96
1777399342519,1980006,-0.77,-0.49,0.42,18.55,10.38,-7.02
1777399342519,1980016,-0.77,-0.49,0.42,18.07,10.19,-7.51
1777399342519,1980026,-0.77,-0.48,0.41,17.21,9.95,-8.00
1777399342519,1980036,-0.76,-0.48,0.39,16.48,10.25,-8.06
1777399342519,1980046,-0.76,-0.47,0.38,16.17,10.93,-7.20
1777399342520,1980056,-0.75,-0.47,0.37,15.99,11.96,-5.74
1777399342520,1980066,-0.76,-0.47,0.36,16.36,13.06,-4.33
1777399342520,1980076,-0.77,-0.47,0.37,17.15,13.67,-3.23
1777399342521,1980086,-0.78,-0.46,0.37,17.94,13.31,-2.99
1777399342521,1980096,-0.78,-0.46,0.38,18.19,12.27,-3.72
1777399342521,1980106,-0.78,-0.46,0.38,18.01,10.86,-5.25
1777399342521,1980126,-0.79,-0.44,0.37,17.40,10.44,-6.84
1777399342521,1980146,-0.78,-0.44,0.37,17.76,10.74,-7.08
1777399342521,1980166,-0.78,-0.44,0.36,16.60,10.68,-6.53
1777399342521,1980176,-0.78,-0.44,0.34,16.60,10.13,-6.96
1777399342521,1980186,-0.78,-0.44,0.34,17.58,9.03,-7.51
1777399342521,1980196,-0.78,-0.44,0.33,19.35,7.75,-8.24
1777399342521,1980206,-0.78,-0.44,0.34,21.55,6.04,-9.70
1777399342522,1980216,-0.78,-0.44,0.35,23.99,4.46,-10.62
1777399342522,1980226,-0.78,-0.44,0.37,25.39,3.17,-10.50
1777399342522,1980236,-0.79,-0.43,0.38,25.39,1.71,-10.62
1777399342522,1980246,-0.78,-0.42,0.38,24.96,0.92,-10.62
1777399342522,1980256,-0.78,-0.42,0.39,24.54,0.85,-10.50
1777399342522,1980266,-0.76,-0.41,0.38,23.50,2.08,-10.80
1777399342522,1980276,-0.74,-0.40,0.37,21.36,3.42,-10.68
1777399342522,1980286,-0.72,-0.40,0.36,19.47,5.25,-9.64
1777399342522,1980296,-0.70,-0.39,0.36,17.70,7.20,-8.24
1777399342523,1980306,-0.69,-0.38,0.35,15.87,8.12,-6.35
1777399342523,1980316,-0.69,-0.36,0.34,14.65,8.91,-4.46
1777399342523,1980326,-0.68,-0.37,0.33,13.49,7.87,-3.23
1777399342523,1980336,-0.68,-0.35,0.31,13.73,5.25,-3.30
1777399342523,1980346,-0.69,-0.35,0.31,16.36,2.99,-3.30
1777399342523,1980356,-0.73,-0.37,0.33,21.18,0.24,-1.65
1777399342523,1980366,-0.76,-0.39,0.37,27.59,-2.93,0.24
1777399342523,1980376,-0.80,-0.39,0.41,32.78,-6.29,-0.12
1777399342523,1980386,-0.83,-0.39,0.45,34.79,-9.83,-1.46
1777399342523,1980396,-0.84,-0.41,0.46,35.16,-12.27,-2.62
1777399342524,1980406,-0.85,-0.42,0.48,34.97,-13.12,-3.91
1777399342524,1980416,-0.87,-0.42,0.50,34.67,-12.76,-4.82
1777399342524,1980426,-0.88,-0.43,0.53,33.87,-12.63,-5.80
1777399342524,1980436,-0.89,-0.44,0.54,32.41,-13.37,-7.63
1777399342524,1980446,-0.88,-0.43,0.55,30.58,-14.34,-9.89
1777399342524,1980466,-0.85,-0.43,0.54,22.16,-11.35,-13.73
1777399342524,1980486,-0.81,-0.44,0.50,18.62,-6.16,-12.70
1777399342524,1980506,-0.79,-0.43,0.48,16.36,-0.79,-9.64
1777399342525,1980526,-0.79,-0.43,0.49,13.98,3.05,-8.24
1777399342525,1980536,-0.79,-0.42,0.48,12.15,3.36,-8.12
1777399342525,1980546,-0.79,-0.42,0.47,10.68,3.17,-7.75
1777399342525,1980556,-0.79,-0.41,0.46,9.58,3.60,-7.51
1777399342525,1980566,-0.78,-0.41,0.44,8.97,4.21,-7.14
1777399342526,1980576,-0.78,-0.41,0.44,9.16,4.82,-6.90
1777399342526,1980586,-0.79,-0.40,0.44,9.89,5.43,-7.20
1777399342526,1980596,-0.79,-0.40,0.45,10.50,4.52,-7.69
1777399342526,1980606,-0.79,-0.40,0.44,11.23,2.44,-8.36
1777399342527,1980616,-0.79,-0.40,0.45,12.02,0.49,-9.09
1777399342527,1980626,-0.78,-0.40,0.45,12.82,-0.73,-9.28
1777399342527,1980636,-0.78,-0.40,0.45,13.24,-1.77,-9.03
1777399342527,1980646,-0.78,-0.39,0.45,12.82,-1.65,-9.22
1777399342527,1980656,-0.77,-0.39,0.45,11.78,-0.67,-9.03
1777399342527,1980666,-0.77,-0.37,0.45,10.13,0.79,-8.06
1777399342527,1980676,-0.76,-0.38,0.44,8.06,2.26,-6.29
1777399342527,1980686,-0.76,-0.37,0.43,6.65,3.11,-4.76
1777399342527,1980696,-0.76,-0.37,0.42,6.23,3.97,-3.78
1777399342527,1980706,-0.78,-0.39,0.42,6.53,4.27,-2.32
1777399342527,1980716,-0.80,-0.40,0.43,7.45,3.60,-1.71
1777399342528,1980726,-0.80,-0.39,0.44,8.24,1.22,-2.56
1777399342528,1980736,-0.80,-0.39,0.43,8.30,-2.01,-3.42
1777399342528,1980746,-0.79,-0.39,0.42,8.18,-3.85,-3.54
1777399342528,1980756,-0.79,-0.39,0.41,8.30,-4.39,-3.36
1777399342528,1980766,-0.78,-0.38,0.41,8.54,-3.36,-2.75
1777399342528,1980776,-0.79,-0.37,0.42,8.42,-1.65,-2.14
1777399342529,1980786,-0.79,-0.37,0.43,7.51,-0.31,-1.89
1777399342529,1980796,-0.80,-0.36,0.44,6.35,0.61,-1.83
1777399342529,1980816,-0.80,-0.35,0.45,2.01,-2.44,-5.55
1777399342535,1980836,-0.77,-0.32,0.43,-0.31,-12.88,-14.34
1777399342555,1980856,-0.70,-0.28,0.39,-3.66,-26.25,-25.70
1777399342575,1980876,-0.62,-0.19,0.36,-3.36,-33.81,-34.97
1777399342585,1980886,-0.60,-0.19,0.36,-6.77,-33.69,-39.92
1777399342595,1980896,-0.56,-0.16,0.35,-8.48,-34.97,-46.57
1777399342605,1980906,-0.54,-0.12,0.32,-8.00,-37.72,-54.32
1777399342615,1980916,-0.50,-0.11,0.34,-8.30,-40.59,-63.54
1777399342625,1980926,-0.48,-0.10,0.40,-11.29,-46.33,-72.81
1777399342635,1980936,-0.46,-0.15,0.43,-16.30,-60.97,-82.09
1777399342645,1980946,-0.43,-0.23,0.36,-19.84,-81.12,-90.82
1777399342655,1980956,-0.32,-0.30,0.27,-16.42,-93.75,-98.33
1777399342665,1980966,-0.23,-0.31,0.25,-2.50,-95.76,-100.83
1777399342675,1980976,-0.22,-0.24,0.27,14.47,-95.21,-95.83
1777399342685,1980986,-0.20,-0.23,0.23,30.46,-93.32,-86.06
1777399342695,1980996,-0.26,-0.25,0.38,44.37,-82.03,-79.65
1777399342705,1981006,-0.31,-0.29,0.51,52.98,-72.69,-75.26
1777399342715,1981016,-0.37,-0.34,0.64,55.36,-75.87,-71.41
1777399342725,1981026,-0.36,-0.37,0.65,51.64,-88.99,-69.40
1777399342735,1981036,-0.32,-0.38,0.56,49.01,-100.04,-67.08
1777399342745,1981046,-0.28,-0.36,0.53,51.70,-97.17,-60.85
1777399342755,1981056,-0.32,-0.33,0.54,56.09,-84.90,-50.54
1777399342765,1981066,-0.38,-0.33,0.64,60.55,-70.50,-40.89
1777399342777,1981076,-0.42,-0.36,0.72,61.58,-61.65,-37.35
1777399342785,1981086,-0.51,-0.47,0.81,62.99,-63.60,-34.48
1777399342795,1981096,-0.80,-0.61,0.98,71.17,-70.68,-32.78
1777399342805,1981106,-1.24,-1.16,1.36,83.50,-82.70,-35.71
1777399342815,1981116,-1.50,-1.52,1.78,105.96,-102.48,-58.59
1777399342825,1981126,-1.37,-1.68,1.85,98.94,-125.43,-92.83
1777399342835,1981136,-1.10,-2.20,1.37,54.20,-146.18,-106.75
1777399342855,1981156,-0.53,-4.00,0.97,101.93,-139.77,-134.77
1777399342875,1981176,-0.13,-4.00,4.00,166.99,-145.32,-115.23
1777399342895,1981196,-0.03,-4.00,4.00,-234.19,-37.48,58.35
1777399342915,1981216,-1.29,-2.79,4.00,-778.14,261.29,288.45
1777399342925,1981226,-1.71,-1.36,4.00,-900.94,344.12,314.51
1777399342935,1981236,-1.85,-0.18,4.00,-915.34,372.62,266.48
1777399342945,1981246,-1.55,0.60,3.89,-825.62,363.22,178.89
1777399342955,1981256,-0.69,1.20,4.00,-670.29,327.88,52.73
1777399342965,1981266,0.67,2.21,4.00,-504.88,252.93,-82.64
1777399342976,1981276,2.03,3.12,4.00,-372.92,157.84,-159.00
1777399342985,1981286,2.92,3.96,3.87,-299.32,94.85,-148.80
1777399342995,1981296,2.88,4.00,3.41,-291.08,60.55,-69.95
1777399343005,1981306,2.35,4.00,2.57,-333.19,25.94,43.09
1777399343015,1981316,1.61,4.00,1.76,-374.27,-3.48,155.46
1777399343027,1981326,0.83,3.31,0.67,-364.26,-8.00,211.18
1777399343035,1981336,0.32,2.32,0.67,-284.36,50.90,178.65
1777399343045,1981346,-0.24,2.25,1.03,-172.85,88.99,101.20
1777399343055,1981356,-0.48,2.29,0.92,-114.81,53.59,59.63
1777399343065,1981366,-0.53,2.04,0.48,-105.59,14.83,50.23
1777399343075,1981376,-0.57,1.94,0.33,-94.97,21.18,31.43
1777399343085,1981386,-0.46,1.85,0.22,-80.14,29.30,4.64
1777399343095,1981396,-0.27,1.72,0.02,-63.11,14.95,-19.29
1777399343105,1981406,-0.01,1.57,-0.27,-36.38,-10.07,-31.13
1777399343115,1981416,0.18,1.39,-0.56,-4.09,-25.76,-30.82
1777399343125,1981426,0.21,1.16,-0.72,32.78,-23.07,-23.86
1777399343135,1981436,0.17,0.89,-0.75,77.82,-10.38,-10.62
1777399343145,1981446,-0.00,0.68,-0.60,125.85,0.67,4.58
1777399343155,1981456,-0.23,0.37,-0.38,161.07,2.69,14.89
1777399343165,1981466,-0.53,0.04,-0.17,176.94,-8.91,11.66
1777399343175,1981476,-0.70,-0.27,-0.10,179.50,-30.94,3.91
1777399343185,1981486,-0.78,-0.45,-0.08,178.53,-47.61,-3.78
1777399343205,1981506,-0.91,-0.75,-0.11,166.69,-38.51,-9.70
1777399343225,1981526,-0.92,-1.38,-0.12,185.67,-36.44,-33.51
1777399343246,1981546,-0.86,-1.44,-0.03,190.37,-47.73,-53.22
1777399343272,1981566,-0.79,-1.44,0.27,154.54,-31.80,-42.97
1777399343275,1981576,-0.74,-1.29,0.19,131.16,-18.49,-27.16
1777399343285,1981586,-0.73,-1.35,0.08,109.50,1.83,-9.83
1777399343295,1981596,-0.77,-1.34,0.11,98.94,26.25,-0.85
1777399343306,1981606,-0.78,-1.37,0.14,92.71,36.74,3.85
1777399343316,1981616,-0.85,-1.46,0.30,88.62,26.31,0.06
1777399343325,1981626,-0.66,-1.39,0.11,84.90,-1.16,-12.02
1777399343335,1981636,-0.49,-1.39,-0.12,80.75,-15.26,-25.63
1777399343345,1981646,-0.46,-1.19,-0.17,89.11,-10.80,-38.45
1777399343355,1981656,-0.44,-1.15,-0.05,96.68,0.12,-33.94
1777399343365,1981666,-0.51,-1.14,0.10,96.07,6.29,-26.37
1777399343375,1981676,-0.51,-1.16,0.11,88.50,6.23,-21.61
1777399343385,1981686,-0.53,-1.08,0.09,78.55,4.88,-19.65
1777399343395,1981696,-0.51,-1.05,0.07,68.05,3.66,-14.28
1777399343405,1981706,-0.50,-1.04,0.03,58.11,-0.31,-8.61
1777399343415,1981716,-0.47,-1.04,-0.03,49.68,-6.71,-5.86
1777399343427,1981726,-0.45,-1.04,-0.07,44.68,-14.71,-6.65
1777399343435,1981736,-0.43,-1.02,-0.15,43.09,-23.25,-8.79
1777399343445,1981746,-0.43,-0.99,-0.21,43.46,-27.10,-8.61
1777399343455,1981756,-0.48,-1.01,-0.22,44.49,-24.60,-5.98
