host_time_ms,arduino_time_ms,ax,ay,az,gx,gy,gz
1777399426246,2057309,-0.74,0.42,-0.24,219.79,-6.84,-69.03
1777399426246,2057319,-0.68,0.37,-0.20,233.89,-3.91,-68.79
1777399426247,2057329,-0.67,0.30,-0.15,241.82,1.34,-67.57
1777399426247,2057339,-0.68,0.27,-0.10,243.10,6.23,-62.74
1777399426247,2057349,-0.71,0.24,-0.10,238.10,8.24,-52.49
1777399426247,2057359,-0.73,0.17,-0.13,231.99,8.24,-40.71
1777399426248,2057369,-0.77,0.08,-0.17,226.01,7.69,-34.00
1777399426248,2057389,-0.86,-0.08,-0.24,236.45,-1.89,-43.82
1777399426248,2057409,-0.85,-0.33,-0.19,247.19,-35.58,-60.42
1777399426248,2057429,-0.81,-0.47,-0.20,251.83,-50.84,-67.63
1777399426249,2057449,-0.84,-0.46,-0.18,233.58,-43.58,-58.41
1777399426249,2057459,-0.88,-0.52,-0.15,217.77,-35.16,-47.67
1777399426249,2057469,-0.95,-0.57,-0.14,202.33,-27.16,-40.16
1777399426249,2057479,-1.04,-0.64,-0.17,192.20,-21.18,-39.61
1777399426250,2057489,-1.08,-0.68,-0.13,185.61,-17.46,-46.57
1777399426250,2057499,-1.07,-0.68,-0.07,179.93,-22.28,-57.13
1777399426250,2057509,-1.00,-0.66,-0.05,171.94,-36.25,-65.49
1777399426250,2057519,-0.95,-0.62,-0.07,159.79,-51.09,-69.52
1777399426251,2057529,-0.86,-0.61,-0.11,142.64,-60.97,-69.95
1777399426251,2057539,-0.79,-0.60,-0.16,123.78,-63.48,-66.59
1777399426251,2057549,-0.76,-0.61,-0.21,106.99,-58.84,-59.94
1777399426251,2057559,-0.74,-0.64,-0.25,94.91,-47.61,-53.10
1777399426252,2057569,-0.76,-0.68,-0.27,89.72,-31.31,-47.97
1777399426252,2057579,-0.78,-0.71,-0.24,89.84,-13.67,-44.43
1777399426252,2057589,-0.82,-0.69,-0.15,91.06,-1.53,-42.18
1777399426252,2057599,-0.84,-0.66,-0.09,90.21,0.73,-42.18
1777399426253,2057609,-0.85,-0.65,-0.07,87.04,-4.03,-44.01
1777399426253,2057619,-0.83,-0.63,-0.08,82.58,-10.62,-47.06
1777399426253,2057629,-0.80,-0.60,-0.05,75.62,-17.70,-48.03
1777399426253,2057639,-0.76,-0.59,-0.05,66.10,-26.67,-44.92
1777399426254,2057649,-0.74,-0.60,-0.07,56.46,-34.61,-40.53
1777399426254,2057659,-0.72,-0.61,-0.08,47.61,-39.25,-36.87
1777399426254,2057669,-0.68,-0.63,-0.10,41.93,-39.49,-33.45
1777399426254,2057679,-0.67,-0.63,-0.09,39.12,-35.64,-29.72
1777399426255,2057689,-0.69,-0.60,-0.09,38.70,-28.50,-25.02
1777399426255,2057699,-0.70,-0.59,-0.09,38.45,-17.70,-21.30
1777399426255,2057709,-0.72,-0.58,-0.06,36.44,-4.64,-19.17
1777399426256,2057719,-0.76,-0.56,-0.01,32.10,4.46,-13.43
1777399426256,2057739,-0.79,-0.54,0.02,10.31,-3.72,-11.17
1777399426256,2057759,-0.75,-0.52,-0.10,0.61,-12.63,-6.53
1777399426257,2057779,-0.73,-0.53,-0.18,0.06,-5.55,-3.85
1777399426257,2057789,-0.77,-0.52,-0.19,3.36,1.40,-1.10
1777399426257,2057799,-0.81,-0.51,-0.20,7.14,7.51,0.85
1777399426257,2057809,-0.83,-0.50,-0.19,9.89,11.96,1.10
1777399426258,2057819,-0.87,-0.50,-0.17,13.18,14.71,2.08
1777399426258,2057829,-0.93,-0.49,-0.12,16.91,15.75,2.62
1777399426258,2057839,-0.95,-0.50,-0.10,18.62,12.82,-2.26
1777399426258,2057849,-0.93,-0.53,-0.10,19.59,4.46,-8.79
1777399426259,2057859,-0.89,-0.54,-0.10,23.74,-5.25,-12.21
1777399426259,2057869,-0.84,-0.52,-0.09,28.56,-13.85,-13.12
1777399426259,2057879,-0.81,-0.50,-0.07,30.21,-20.87,-13.43
1777399426259,2057889,-0.76,-0.49,-0.06,28.50,-26.31,-12.02
1777399426260,2057899,-0.73,-0.48,-0.08,25.27,-29.30,-8.42
1777399426260,2057909,-0.73,-0.49,-0.09,22.40,-27.77,-4.15
1777399426260,2057919,-0.75,-0.50,-0.11,20.75,-21.79,-2.08
1777399426260,2057929,-0.76,-0.54,-0.12,21.18,-13.92,-3.05
1777399426260,2057939,-0.77,-0.55,-0.08,24.66,-5.92,-3.66
1777399426261,2057949,-0.79,-0.55,-0.03,27.89,-1.53,-4.03
1777399426261,2057959,-0.80,-0.55,0.00,28.56,-3.23,-5.25
1777399426261,2057969,-0.79,-0.55,0.02,26.98,-8.91,-5.62
1777399426261,2057979,-0.79,-0.56,0.04,24.72,-15.75,-5.00
1777399426262,2057989,-0.79,-0.58,0.05,21.79,-23.62,-5.00
1777399426262,2057999,-0.78,-0.59,0.07,19.17,-32.65,-5.62
1777399426262,2058009,-0.78,-0.60,0.07,17.21,-41.69,-6.35
1777399426262,2058019,-0.78,-0.60,0.06,16.11,-49.07,-6.16
1777399426263,2058029,-0.79,-0.60,0.07,15.32,-53.04,-5.43
1777399426263,2058039,-0.81,-0.61,0.05,14.34,-53.83,-6.77
1777399426263,2058049,-0.80,-0.62,0.04,14.10,-52.19,-10.56
1777399426263,2058059,-0.80,-0.63,0.05,15.75,-49.87,-16.54
1777399426263,2058079,-0.77,-0.59,0.11,17.15,-60.00,-16.42
1777399426264,2058099,-0.75,-0.59,0.12,14.59,-71.72,-14.77
1777399426264,2058119,-0.76,-0.58,0.09,15.26,-75.44,-11.72
1777399426264,2058139,-0.84,-0.57,0.14,19.41,-66.65,-8.48
1777399426264,2058149,-0.86,-0.57,0.16,19.71,-60.79,-10.13
1777399426264,2058159,-0.85,-0.57,0.16,20.08,-53.89,-14.04
1777399426265,2058169,-0.84,-0.56,0.17,21.06,-46.69,-17.40
1777399426265,2058179,-0.82,-0.55,0.20,22.83,-41.50,-17.82
1777399426265,2058189,-0.79,-0.54,0.21,23.99,-38.51,-17.21
1777399426265,2058199,-0.76,-0.53,0.21,22.64,-36.44,-16.97
1777399426266,2058209,-0.75,-0.55,0.20,19.84,-35.28,-15.81
1777399426266,2058219,-0.72,-0.56,0.17,18.13,-33.94,-13.61
1777399426266,2058229,-0.70,-0.57,0.14,16.66,-30.82,-12.94
1777399426266,2058239,-0.68,-0.61,0.09,16.05,-25.15,-12.76
1777399426266,2058249,-0.67,-0.64,0.05,19.04,-16.36,-13.00
1777399426267,2058259,-0.67,-0.66,0.05,25.70,-5.86,-12.70
1777399426267,2058269,-0.69,-0.65,0.09,33.39,3.42,-12.33
1777399426267,2058279,-0.70,-0.64,0.14,38.21,8.73,-12.39
1777399426267,2058289,-0.72,-0.63,0.20,39.67,7.93,-12.27
1777399426267,2058299,-0.74,-0.63,0.25,38.57,2.08,-12.15
1777399426268,2058309,-0.75,-0.63,0.28,35.40,-8.00,-12.02
1777399426268,2058319,-0.75,-0.64,0.28,31.86,-18.80,-11.47
1777399426268,2058329,-0.75,-0.64,0.26,29.11,-26.18,-11.47
1777399426268,2058339,-0.72,-0.64,0.23,27.04,-27.89,-11.84
1777399426268,2058349,-0.71,-0.64,0.21,25.63,-23.62,-11.35
1777399426269,2058359,-0.71,-0.63,0.20,24.48,-14.34,-10.25
1777399426269,2058369,-0.74,-0.63,0.23,24.05,-3.42,-8.24
1777399426269,2058379,-0.76,-0.63,0.24,24.60,4.58,-7.14
1777399426269,2058389,-0.77,-0.62,0.24,24.72,8.00,-8.24
1777399426269,2058399,-0.78,-0.62,0.23,25.33,7.57,-9.95
1777399426270,2058409,-0.78,-0.64,0.24,27.40,-11.35,-11.84
1777399426270,2058429,-0.79,-0.64,0.26,40.71,-19.78,-14.04
1777399426270,2058449,-0.74,-0.61,0.26,46.20,-28.93,-15.26
1777399426270,2058469,-0.75,-0.59,0.29,51.64,-29.24,-11.05
1777399426271,2058479,-0.78,-0.57,0.32,54.14,-27.34,-9.40
1777399426271,2058489,-0.77,-0.56,0.35,53.89,-25.70,-8.61
1777399426271,2058499,-0.76,-0.56,0.36,52.19,-25.27,-9.09
1777399426271,2058509,-0.75,-0.58,0.38,50.42,-24.96,-8.91
1777399426271,2058519,-0.75,-0.57,0.38,50.29,-25.09,-7.32
1777399426271,2058529,-0.72,-0.57,0.38,50.29,-26.06,-5.07
1777399426272,2058539,-0.72,-0.57,0.38,50.66,-27.04,-4.03
1777399426272,2058549,-0.69,-0.55,0.37,51.15,-26.25,-4.09
1777399426272,2058559,-0.72,-0.52,0.38,51.39,-22.64,-4.94
1777399426272,2058569,-0.74,-0.50,0.42,49.32,-17.64,-5.55
1777399426272,2058579,-0.78,-0.48,0.47,42.66,-13.67,-9.34
1777399426273,2058589,-0.76,-0.46,0.49,29.91,-13.06,-14.71
1777399426273,2058599,-0.76,-0.49,0.47,16.42,-15.01,-15.69
1777399426273,2058609,-0.74,-0.52,0.42,8.18,-16.24,-12.82
1777399426273,2058619,-0.73,-0.54,0.39,5.19,-14.22,-8.97
1777399426273,2058629,-0.72,-0.55,0.36,5.25,-10.13,-5.86
1777399426273,2058639,-0.73,-0.56,0.36,7.08,-4.52,-4.09
1777399426274,2058649,-0.74,-0.56,0.38,8.85,0.79,-3.17
1777399426274,2058659,-0.76,-0.55,0.41,9.64,3.72,-3.05
1777399426274,2058669,-0.77,-0.55,0.43,9.64,3.23,-3.11
1777399426274,2058679,-0.79,-0.54,0.44,8.67,0.18,-3.30
1777399426274,2058689,-0.79,-0.53,0.44,7.02,-3.78,-3.72
1777399426274,2058699,-0.77,-0.53,0.42,5.13,-6.59,-3.97
1777399426275,2058709,-0.75,-0.53,0.39,3.30,-6.29,-3.78
1777399426275,2058719,-0.74,-0.53,0.38,2.38,-2.38,-2.99
1777399426275,2058729,-0.75,-0.53,0.38,2.26,2.99,-2.26
1777399426275,2058739,-0.75,-0.54,0.39,1.95,7.20,-2.81
1777399426275,2058749,-0.76,-0.54,0.40,1.77,8.91,-3.36
1777399426275,2058769,-0.77,-0.53,0.42,2.32,4.52,-6.23
1777399426276,2058789,-0.74,-0.53,0.39,1.71,0.00,-7.57
1777399426276,2058809,-0.71,-0.51,0.39,2.75,3.60,-9.22
1777399426276,2058829,-0.71,-0.51,0.41,1.34,7.51,-10.13
1777399426276,2058839,-0.71,-0.51,0.41,0.79,7.57,-9.52
1777399426276,2058849,-0.71,-0.51,0.41,0.37,6.47,-8.48
1777399426277,2058859,-0.72,-0.52,0.40,0.31,4.94,-6.59
1777399426277,2058869,-0.72,-0.52,0.40,0.67,3.42,-5.80
1777399426277,2058879,-0.73,-0.51,0.41,1.04,2.38,-6.77
1777399426277,2058889,-0.73,-0.51,0.40,0.92,1.34,-8.24
1777399426277,2058899,-0.74,-0.51,0.40,1.10,0.85,-9.52
1777399426278,2058909,-0.74,-0.51,0.39,2.20,1.83,-10.99
1777399426278,2058919,-0.74,-0.51,0.40,2.81,3.05,-12.27
1777399426278,2058929,-0.74,-0.51,0.40,3.66,3.60,-12.94
1777399426278,2058939,-0.73,-0.51,0.39,4.15,4.03,-13.18
1777399426278,2058949,-0.72,-0.51,0.39,3.85,4.76,-12.82
1777399426279,2058959,-0.71,-0.52,0.38,3.72,4.64,-12.45
1777399426279,2058969,-0.70,-0.52,0.37,4.58,4.64,-12.08
1777399426279,2058979,-0.72,-0.52,0.38,5.43,4.82,-11.54
1777399426279,2058989,-0.73,-0.52,0.40,6.29,3.30,-11.41
1777399426279,2058999,-0.73,-0.51,0.40,7.39,0.37,-12.08
1777399426279,2059009,-0.73,-0.50,0.39,7.93,-2.62,-12.63
1777399426279,2059019,-0.73,-0.50,0.38,8.00,-3.72,-13.37
1777399426280,2059029,-0.73,-0.50,0.36,8.36,-2.75,-14.34
1777399426280,2059039,-0.73,-0.50,0.35,8.97,-0.31,-14.89
1777399426280,2059049,-0.71,-0.50,0.34,9.83,2.69,-14.59
1777399426280,2059059,-0.70,-0.50,0.32,10.56,6.90,-13.43
1777399426280,2059069,-0.70,-0.51,0.32,11.17,11.54,-11.66
1777399426280,2059079,-0.70,-0.52,0.33,11.78,14.65,-9.83
1777399426281,2059089,-0.71,-0.52,0.34,12.94,15.01,-8.18
1777399426281,2059099,-0.73,-0.52,0.36,14.22,13.18,-6.35
1777399426281,2059119,-0.74,-0.53,0.38,13.37,-3.85,-7.14
1777399426281,2059139,-0.75,-0.53,0.36,15.44,-8.85,-6.53
1777399426281,2059159,-0.76,-0.53,0.38,17.76,-6.59,-6.04
1777399426281,2059179,-0.76,-0.51,0.40,17.58,-2.26,-5.68
1777399426281,2059189,-0.77,-0.50,0.41,16.48,0.12,-4.39
1777399426282,2059199,-0.77,-0.49,0.41,14.89,2.20,-3.42
1777399426282,2059209,-0.77,-0.50,0.40,12.15,3.36,-3.17
1777399426282,2059219,-0.75,-0.51,0.38,8.73,3.91,-3.36
1777399426282,2059229,-0.73,-0.52,0.35,6.71,5.00,-3.66
1777399426282,2059239,-0.71,-0.53,0.33,6.59,6.71,-3.48
1777399426282,2059249,-0.71,-0.54,0.32,8.06,9.16,-2.44
1777399426283,2059259,-0.71,-0.54,0.33,9.46,11.11,-1.34
1777399426283,2059269,-0.73,-0.54,0.34,9.89,10.93,-0.73
1777399426283,2059279,-0.73,-0.55,0.33,10.44,9.58,0.00
1777399426283,2059289,-0.76,-0.55,0.34,11.17,7.87,0.79
1777399426283,2059299,-0.78,-0.56,0.36,12.15,5.49,1.59
1777399426283,2059309,-0.79,-0.56,0.37,12.70,2.08,0.67
1777399426283,2059319,-0.79,-0.56,0.37,12.27,-2.01,-1.46
1777399426284,2059329,-0.78,-0.55,0.37,12.02,-5.55,-2.62
1777399426284,2059339,-0.77,-0.55,0.37,12.21,-7.93,-2.56
1777399426284,2059349,-0.76,-0.55,0.37,11.66,-8.85,-2.75
1777399426284,2059359,-0.76,-0.54,0.37,10.99,-8.36,-2.50
1777399426284,2059369,-0.75,-0.54,0.37,10.44,-7.14,-0.92
1777399426284,2059379,-0.76,-0.53,0.37,10.01,-5.43,1.04
1777399426284,2059389,-0.77,-0.53,0.38,9.16,-3.66,2.26
1777399426285,2059399,-0.78,-0.52,0.39,8.79,-2.32,2.93
1777399426285,2059409,-0.79,-0.51,0.39,8.79,-1.04,3.30
1777399426285,2059419,-0.80,-0.50,0.40,7.93,-0.18,2.75
1777399426285,2059429,-0.79,-0.50,0.40,6.16,0.12,1.40
1777399426285,2059439,-0.78,-0.49,0.38,4.21,-0.12,0.12
1777399426285,2059459,-0.77,-0.48,0.37,2.32,1.53,1.71
1777399426285,2059479,-0.77,-0.47,0.35,0.92,1.59,3.05
1777399426286,2059499,-0.76,-0.48,0.34,1.16,2.32,5.68
1777399426286,2059519,-0.79,-0.47,0.35,2.08,2.81,5.98
1777399426286,2059529,-0.80,-0.47,0.35,2.81,2.26,4.94
1777399426286,2059539,-0.80,-0.47,0.36,3.66,0.85,2.93
1777399426286,2059549,-0.80,-0.47,0.35,3.72,-0.67,1.16
1777399426286,2059559,-0.79,-0.47,0.35,3.85,-1.59,0.55
1777399426287,2059569,-0.78,-0.48,0.33,4.15,-1.65,0.49
1777399426287,2059579,-0.78,-0.48,0.33,4.09,-0.61,-0.12
1777399426287,2059589,-0.79,-0.49,0.34,4.27,0.61,-0.43
1777399426287,2059599,-0.79,-0.48,0.35,5.19,0.85,0.18
1777399426287,2059609,-0.79,-0.48,0.35,5.86,0.43,0.49
1777399426287,2059619,-0.80,-0.48,0.35,6.29,-0.18,0.12
1777399426288,2059629,-0.81,-0.48,0.36,7.20,-0.85,-0.24
1777399426288,2059639,-0.81,-0.47,0.37,7.81,-1.71,-1.53
1777399426288,2059649,-0.80,-0.47,0.36,7.39,-2.87,-3.48
1777399426288,2059659,-0.78,-0.46,0.35,6.65,-3.11,-4.94
1777399426288,2059669,-0.77,-0.47,0.33,6.16,-2.08,-5.74
1777399426288,2059679,-0.76,-0.48,0.33,5.74,-1.04,-5.80
1777399426288,2059689,-0.75,-0.48,0.33,6.23,-0.85,-5.13
1777399426289,2059699,-0.75,-0.49,0.33,7.02,-1.40,-4.27
1777399426289,2059709,-0.76,-0.49,0.35,7.39,-2.50,-3.66
1777399426289,2059719,-0.76,-0.49,0.35,6.84,-4.46,-3.48
1777399426289,2059729,-0.76,-0.49,0.36,6.59,-6.96,-3.60
1777399426289,2059739,-0.76,-0.49,0.36,7.08,-8.73,-3.36
1777399426289,2059749,-0.76,-0.49,0.36,7.08,-9.28,-3.48
1777399426289,2059759,-0.76,-0.49,0.37,6.84,-8.91,-3.97
1777399426290,2059769,-0.77,-0.48,0.37,6.53,-8.00,-4.21
1777399426290,2059779,-0.78,-0.48,0.38,5.25,-7.51,-3.85
1777399426290,2059789,-0.78,-0.48,0.39,3.72,-8.18,-2.69
1777399426290,2059809,-0.77,-0.48,0.38,-0.49,-10.38,-1.95
1777399426290,2059829,-0.77,-0.48,0.36,-1.65,-9.95,-0.98
1777399426290,2059849,-0.76,-0.49,0.37,-2.44,-10.74,-0.55
1777399426291,2059869,-0.73,-0.51,0.37,-4.76,-12.70,-0.24
1777399426291,2059879,-0.72,-0.52,0.36,-5.55,-13.55,0.98
1777399426291,2059889,-0.71,-0.52,0.36,-5.74,-13.73,2.75
1777399426291,2059899,-0.72,-0.52,0.37,-5.80,-13.67,4.58
1777399426291,2059909,-0.73,-0.52,0.39,-5.62,-14.77,6.29
1777399426291,2059919,-0.75,-0.52,0.40,-5.49,-16.78,7.87
1777399426291,2059929,-0.76,-0.51,0.41,-5.49,-18.19,9.03
1777399426292,2059939,-0.78,-0.49,0.42,-6.59,-19.04,9.52
1777399426292,2059949,-0.79,-0.49,0.43,-8.42,-19.17,9.58
1777399426292,2059959,-0.81,-0.47,0.43,-9.52,-18.19,9.77
1777399426292,2059969,-0.83,-0.45,0.44,-10.01,-16.17,10.25
1777399426292,2059979,-0.85,-0.44,0.45,-11.05,-13.43,10.80
1777399426292,2059989,-0.87,-0.42,0.45,-12.51,-10.38,10.99
1777399426292,2059999,-0.89,-0.41,0.44,-14.28,-7.32,10.44
1777399426293,2060009,-0.89,-0.41,0.43,-15.56,-4.09,9.64
1777399426293,2060019,-0.90,-0.40,0.41,-16.24,-0.92,8.42
1777399426293,2060029,-0.90,-0.40,0.39,-16.30,2.01,6.10
1777399426293,2060039,-0.88,-0.40,0.36,-15.38,4.70,3.60
1777399426293,2060049,-0.87,-0.39,0.35,-13.85,7.08,0.67
1777399426293,2060059,-0.86,-0.38,0.34,-12.08,8.36,-1.53
1777399426293,2060069,-0.84,-0.39,0.32,-10.50,8.42,-3.30
1777399426294,2060079,-0.83,-0.39,0.31,-8.85,8.42,-5.07
1777399426294,2060089,-0.81,-0.39,0.30,-6.96,7.69,-5.37
1777399426294,2060099,-0.80,-0.40,0.28,-5.00,7.02,-4.94
1777399426294,2060109,-0.80,-0.40,0.28,-2.87,6.47,-5.13
1777399426294,2060119,-0.81,-0.40,0.29,-0.24,5.80,-5.49
1777399426294,2060129,-0.81,-0.41,0.29,2.44,4.15,-6.29
1777399426294,2060149,-0.80,-0.41,0.29,10.56,-1.34,-9.28
1777399426295,2060169,-0.79,-0.43,0.31,12.51,-6.41,-11.11
1777399426295,2060189,-0.76,-0.45,0.32,13.43,-9.16,-10.50
1777399426295,2060209,-0.77,-0.45,0.34,13.37,-9.34,-10.01
1777399426295,2060219,-0.77,-0.45,0.35,13.18,-8.42,-9.28
1777399426295,2060229,-0.77,-0.46,0.36,12.08,-7.75,-8.61
1777399426295,2060239,-0.78,-0.48,0.36,11.54,-7.39,-7.69
1777399426295,2060249,-0.78,-0.48,0.37,11.66,-7.20,-7.20
1777399426295,2060259,-0.79,-0.48,0.38,11.60,-7.63,-7.39
1777399426296,2060269,-0.79,-0.48,0.39,11.17,-9.09,-7.20
1777399426296,2060279,-0.80,-0.48,0.40,10.31,-10.99,-6.35
1777399426296,2060289,-0.81,-0.47,0.40,8.79,-12.08,-5.25
1777399426296,2060299,-0.82,-0.47,0.40,7.26,-12.51,-4.33
1777399426296,2060309,-0.82,-0.46,0.39,5.80,-11.84,-4.09
1777399426296,2060319,-0.82,-0.45,0.39,4.21,-9.95,-4.70
1777399426296,2060329,-0.83,-0.45,0.39,2.32,-6.90,-5.62
1777399426297,2060339,-0.83,-0.44,0.39,0.55,-4.21,-5.92
1777399426297,2060349,-0.83,-0.45,0.39,-0.92,-2.87,-5.98
1777399426297,2060359,-0.82,-0.45,0.38,-2.14,-2.38,-6.65
1777399426297,2060369,-0.82,-0.45,0.38,-3.42,-2.87,-7.32
1777399426297,2060379,-0.80,-0.45,0.36,-4.15,-3.66,-7.93
1777399426297,2060389,-0.79,-0.44,0.35,-4.58,-4.21,-8.48
1777399426297,2060399,-0.78,-0.44,0.34,-4.46,-4.33,-7.93
1777399426298,2060409,-0.78,-0.44,0.33,-3.78,-3.78,-6.96
1777399426298,2060419,-0.77,-0.44,0.34,-3.30,-3.66,-6.47
1777399426298,2060429,-0.76,-0.45,0.34,-3.48,-3.78,-6.35
1777399426298,2060439,-0.75,-0.46,0.33,-4.15,-4.70,-6.35
1777399426298,2060449,-0.75,-0.47,0.33,-4.33,-6.10,-5.43
1777399426298,2060459,-0.74,-0.48,0.33,-3.72,-8.00,-4.58
1777399426298,2060469,-0.75,-0.49,0.35,-2.81,-10.74,-3.78
1777399426299,2060479,-0.75,-0.49,0.35,-2.26,-29.42,-3.78
1777399426299,2060499,-0.75,-0.49,0.36,-2.69,-17.58,-2.69
1777399426299,2060519,-0.78,-0.50,0.38,-3.78,-16.85,0.06
1777399426299,2060539,-0.77,-0.49,0.39,-5.25,-15.26,2.56
1777399426299,2060559,-0.80,-0.48,0.41,-7.81,-14.71,2.93
1777399426299,2060569,-0.81,-0.49,0.42,-9.34,-15.44,2.69
1777399426299,2060579,-0.82,-0.47,0.41,-9.58,-15.38,2.32
1777399426299,2060589,-0.82,-0.46,0.42,-9.77,-14.47,1.59
1777399426300,2060599,-0.82,-0.45,0.41,-11.05,-13.00,0.61
1777399426300,2060609,-0.83,-0.45,0.41,-11.72,-11.35,0.00
1777399426300,2060619,-0.82,-0.44,0.40,-12.02,-9.40,-0.18
1777399426300,2060629,-0.82,-0.44,0.40,-12.33,-7.45,0.24
1777399426300,2060639,-0.82,-0.44,0.39,-12.39,-5.43,0.85
1777399426300,2060649,-0.83,-0.43,0.39,-12.02,-3.72,1.34
1777399426300,2060659,-0.83,-0.43,0.38,-11.54,-2.20,1.28
1777399426300,2060669,-0.83,-0.42,0.38,-11.60,-1.40,0.61
1777399426301,2060679,-0.83,-0.42,0.36,-11.11,-1.10,-0.18
1777399426301,2060689,-0.84,-0.42,0.36,-9.46,-0.92,-0.37
1777399426301,2060699,-0.85,-0.41,0.36,-7.45,-0.85,-1.10
1777399426301,2060709,-0.84,-0.41,0.36,-5.74,-1.04,-2.75
1777399426301,2060719,-0.83,-0.40,0.35,-4.94,-1.16,-4.33
1777399426301,2060729,-0.82,-0.41,0.34,-4.15,-0.92,-5.13
1777399426301,2060739,-0.81,-0.41,0.34,-3.30,-0.49,-5.92
1777399426302,2060749,-0.80,-0.41,0.33,-2.75,-0.43,-6.47
1777399426302,2060759,-0.79,-0.41,0.32,-1.59,-0.31,-6.77
1777399426302,2060769,-0.78,-0.41,0.32,-0.37,-0.06,-7.14
1777399426302,2060779,-0.77,-0.41,0.32,0.55,0.18,-7.08
1777399426302,2060789,-0.77,-0.42,0.32,1.83,0.24,-5.92
1777399426302,2060799,-0.77,-0.43,0.32,2.81,0.00,-4.64
1777399426302,2060809,-0.77,-0.43,0.32,4.15,-0.24,-4.15
1777399426302,2060819,-0.77,-0.44,0.32,5.62,-0.67,-4.09
1777399426303,2060839,-0.79,-0.44,0.34,9.09,-2.99,-4.15
1777399426303,2060859,-0.80,-0.43,0.37,9.16,-5.13,-5.62
1777399426303,2060879,-0.81,-0.44,0.38,8.73,-6.71,-6.47
1777399426303,2060899,-0.78,-0.44,0.35,7.51,-5.74,-6.90
1777399426303,2060909,-0.77,-0.45,0.35,7.02,-3.23,-6.29
1777399426303,2060919,-0.77,-0.45,0.35,7.14,-0.67,-5.43
1777399426303,2060929,-0.78,-0.45,0.35,7.39,0.24,-5.19
1777399426303,2060939,-0.79,-0.45,0.35,7.57,-0.24,-4.94
1777399426303,2060949,-0.79,-0.45,0.36,8.00,-1.65,-4.64
1777399426304,2060959,-0.80,-0.45,0.36,8.30,-3.23,-4.64
1777399426304,2060969,-0.80,-0.45,0.36,8.06,-5.49,-4.88
1777399426304,2060979,-0.80,-0.46,0.35,7.69,-7.32,-5.55
1777399426304,2060989,-0.79,-0.46,0.34,8.06,-7.75,-5.80
1777399426304,2060999,-0.79,-0.46,0.35,8.18,-6.65,-5.68
1777399426304,2061009,-0.80,-0.47,0.37,7.69,-5.68,-5.55
1777399426304,2061019,-0.80,-0.46,0.37,6.90,-5.55,-5.07
1777399426304,2061029,-0.81,-0.47,0.38,5.74,-5.92,-4.27
1777399426305,2061039,-0.82,-0.47,0.38,4.82,-6.04,-3.60
1777399426305,2061049,-0.83,-0.46,0.38,4.09,-5.68,-3.60
1777399426305,2061059,-0.83,-0.46,0.38,3.23,-5.19,-4.27
1777399426305,2061069,-0.83,-0.46,0.38,2.38,-3.91,-5.25
1777399426305,2061079,-0.83,-0.45,0.38,1.34,-2.32,-5.80
1777399426305,2061089,-0.83,-0.45,0.37,-0.06,-1.22,-6.53
1777399426305,2061099,-0.83,-0.45,0.36,-0.98,-0.67,-6.96
1777399426305,2061109,-0.82,-0.44,0.35,-0.98,-0.49,-7.26
1777399426306,2061119,-0.82,-0.44,0.34,-0.79,-0.43,-7.26
1777399426306,2061129,-0.81,-0.44,0.34,-0.67,-0.61,-7.08
1777399426306,2061139,-0.82,-0.43,0.34,-0.31,-0.67,-7.57
1777399426306,2061149,-0.82,-0.44,0.33,0.37,-1.16,-7.87
1777399426306,2061159,-0.83,-0.43,0.34,1.59,-1.53,-8.00
1777399426306,2061169,-0.83,-0.43,0.34,2.99,-2.26,-8.97
1777399426306,2061189,-0.81,-0.42,0.33,3.66,-1.71,-10.07
1777399426307,2061209,-0.78,-0.44,0.32,4.58,0.06,-9.40
1777399426307,2061229,-0.77,-0.45,0.33,5.92,-1.28,-7.02
1777399426307,2061249,-0.78,-0.46,0.33,7.81,-5.07,-5.31
1777399426307,2061259,-0.78,-0.46,0.34,9.09,-6.04,-5.13
1777399426307,2061269,-0.79,-0.46,0.35,9.95,-6.53,-5.43
1777399426307,2061279,-0.80,-0.45,0.36,10.19,-5.92,-5.80
1777399426307,2061289,-0.80,-0.44,0.37,9.16,-5.07,-6.04
1777399426307,2061299,-0.80,-0.44,0.37,7.69,-4.09,-5.43
1777399426308,2061309,-0.81,-0.44,0.37,6.53,-2.32,-4.58
1777399426308,2061319,-0.82,-0.44,0.37,5.62,-0.61,-3.91
1777399426308,2061329,-0.83,-0.44,0.37,5.07,0.43,-3.85
1777399426308,2061339,-0.83,-0.44,0.36,4.64,0.98,-4.52
1777399426308,2061349,-0.83,-0.45,0.35,4.70,1.40,-4.88
1777399426308,2061359,-0.83,-0.45,0.35,5.31,1.71,-5.25
1777399426308,2061369,-0.83,-0.45,0.34,6.04,1.40,-5.68
1777399426309,2061379,-0.82,-0.45,0.34,6.65,0.92,-6.47
1777399426309,2061389,-0.82,-0.45,0.33,7.45,0.37,-7.20
1777399426309,2061399,-0.81,-0.44,0.33,8.42,0.06,-7.32
1777399426309,2061409,-0.82,-0.44,0.33,8.97,-0.12,-7.26
1777399426309,2061419,-0.82,-0.44,0.34,9.34,-0.18,-6.96
1777399426309,2061429,-0.81,-0.44,0.33,8.91,-0.12,-7.26
1777399426309,2061439,-0.80,-0.44,0.32,8.00,0.55,-7.63
1777399426309,2061449,-0.81,-0.44,0.32,8.18,2.14,-7.26
1777399426310,2061459,-0.82,-0.44,0.32,9.03,3.48,-7.14
1777399426310,2061469,-0.83,-0.43,0.32,10.25,4.21,-7.20
1777399426310,2061479,-0.83,-0.43,0.32,10.99,4.03,-7.93
1777399426310,2061489,-0.82,-0.44,0.32,11.72,3.60,-8.79
1777399426310,2061499,-0.81,-0.44,0.32,12.57,3.60,-9.34
1777399426310,2061509,-0.81,-0.43,0.32,13.37,3.72,-9.95
1777399426310,2061529,-0.81,-0.43,0.33,15.26,2.20,-9.03
1777399426310,2061549,-0.81,-0.43,0.34,15.20,0.67,-9.34
1777399426310,2061569,-0.80,-0.43,0.34,15.14,1.95,-9.34
1777399426311,2061589,-0.80,-0.43,0.36,14.53,4.52,-9.77
1777399426311,2061599,-0.79,-0.44,0.35,14.16,4.27,-9.46
1777399426311,2061609,-0.79,-0.45,0.35,13.85,3.36,-9.16
1777399426311,2061619,-0.80,-0.46,0.36,13.85,1.95,-9.34
1777399426311,2061629,-0.80,-0.46,0.37,14.22,0.00,-9.58
1777399426311,2061639,-0.80,-0.47,0.37,14.28,-2.38,-9.95
1777399426311,2061649,-0.80,-0.47,0.37,14.34,-4.21,-9.77
1777399426311,2061659,-0.80,-0.46,0.38,13.98,-5.25,-9.22
1777399426312,2061669,-0.80,-0.46,0.38,13.24,-5.62,-8.54
1777399426312,2061679,-0.79,-0.45,0.38,12.15,-4.39,-8.42
1777399426312,2061689,-0.79,-0.45,0.38,10.80,-2.44,-8.18
1777399426312,2061699,-0.80,-0.45,0.39,9.22,-0.12,-7.20
1777399426312,2061709,-0.80,-0.45,0.39,7.57,1.77,-6.59
1777399426312,2061719,-0.80,-0.45,0.39,5.43,2.62,-7.08
1777399426312,2061729,-0.81,-0.45,0.38,3.54,2.99,-7.08
1777399426312,2061739,-0.81,-0.45,0.38,2.38,2.87,-6.35
1777399426312,2061749,-0.82,-0.45,0.38,1.59,2.14,-6.23
1777399426313,2061759,-0.81,-0.45,0.37,0.55,1.10,-6.41
1777399426313,2061769,-0.81,-0.45,0.36,-0.18,0.67,-6.47
1777399426313,2061779,-0.81,-0.46,0.35,-0.55,1.28,-6.53
1777399426313,2061789,-0.81,-0.46,0.35,-0.55,2.20,-6.47
1777399426313,2061799,-0.82,-0.47,0.35,-0.37,2.93,-6.53
1777399426313,2061809,-0.83,-0.47,0.36,0.55,3.66,-6.96
1777399426313,2061819,-0.83,-0.47,0.36,1.65,4.82,-7.51
1777399426313,2061829,-0.83,-0.47,0.37,1.65,5.55,-8.24
1777399426313,2061839,-0.83,-0.47,0.37,0.49,5.25,-8.48
1777399426314,2061849,-0.83,-0.47,0.37,0.37,4.94,-8.61
1777399426314,2061859,-0.84,-0.46,0.37,0.43,4.58,-8.42
1777399426314,2061879,-0.84,-0.46,0.39,-2.14,1.34,-8.00
1777399426314,2061899,-0.84,-0.46,0.36,-5.19,1.71,-7.45
1777399426314,2061919,-0.81,-0.46,0.34,-6.77,7.39,-7.14
1777399426314,2061939,-0.78,-0.46,0.31,-8.36,20.26,-7.75
1777399426314,2061949,-0.78,-0.46,0.31,-8.91,28.32,-7.69
1777399426314,2061959,-0.79,-0.47,0.31,-9.46,34.67,-8.12
1777399426315,2061969,-0.78,-0.46,0.30,-11.54,39.12,-8.85
1777399426315,2061979,-0.79,-0.48,0.29,-13.12,41.93,-6.90
1777399426315,2061989,-0.78,-0.49,0.29,-14.40,43.03,-4.46
1777399426315,2061999,-0.80,-0.44,0.28,-16.72,41.75,-2.99
1777399426315,2062009,-0.80,-0.47,0.26,-18.92,39.31,-1.10
1777399426315,2062019,-0.80,-0.47,0.25,-19.84,36.38,-0.12
1777399426315,2062029,-0.80,-0.45,0.21,-20.08,33.63,-0.55
1777399426315,2062039,-0.79,-0.46,0.19,-21.00,31.31,-1.16
1777399426316,2062049,-0.78,-0.48,0.16,-20.26,29.42,-2.81
1777399426316,2062059,-0.77,-0.47,0.14,-17.82,28.14,-3.72
1777399426316,2062069,-0.77,-0.48,0.14,-14.83,26.98,-3.48
1777399426316,2062079,-0.78,-0.47,0.14,-12.27,25.63,-2.81
1777399426316,2062089,-0.78,-0.46,0.14,-10.44,23.19,-1.40
1777399426316,2062099,-0.80,-0.46,0.14,-9.64,20.20,0.49
1777399426316,2062109,-0.81,-0.46,0.14,-8.85,16.72,1.65
1777399426316,2062119,-0.83,-0.46,0.15,-8.61,12.45,2.50
1777399426317,2062129,-0.84,-0.44,0.16,-8.42,7.39,2.38
1777399426317,2062139,-0.85,-0.45,0.15,-7.81,2.26,2.08
1777399426317,2062149,-0.86,-0.46,0.13,-7.32,-2.01,0.18
1777399426317,2062159,-0.85,-0.48,0.10,-5.19,-4.88,-2.38
1777399426317,2062169,-0.85,-0.49,0.09,-0.67,-6.10,-4.27
1777399426317,2062179,-0.85,-0.48,0.09,3.85,-5.68,-5.80
1777399426317,2062189,-0.86,-0.49,0.10,5.74,-4.88,-7.81
1777399426317,2062199,-0.86,-0.48,0.11,6.53,-3.78,-10.01
1777399426318,2062219,-0.85,-0.44,0.12,8.42,-3.91,-6.47
1777399426318,2062239,-0.84,-0.50,0.13,9.22,-3.36,-7.02
1777399426318,2062259,-0.82,-0.55,0.02,19.29,-0.55,-13.92
1777399426318,2062279,-0.81,-0.53,0.04,26.06,9.09,-21.48
1777399426318,2062289,-0.85,-0.47,0.16,27.16,12.82,-22.58
1777399426318,2062299,-0.77,-0.50,0.28,27.22,11.84,-21.30
1777399426318,2062309,-0.87,-0.44,0.21,17.70,2.75,-21.06
1777399426318,2062319,-0.87,-0.41,0.11,18.80,-6.90,-17.52
1777399426319,2062329,-0.84,-0.48,0.05,19.71,-6.29,-13.06
1777399426319,2062339,-0.83,-0.50,0.09,15.14,-2.14,-12.08
1777399426319,2062349,-0.85,-0.54,0.16,14.71,0.06,-13.06
1777399426319,2062359,-0.84,-0.56,0.11,17.46,-3.42,-16.42
1777399426319,2062369,-0.84,-0.49,0.14,17.64,-4.46,-21.06
1777399426319,2062379,-0.84,-0.50,0.11,16.66,-3.91,-22.03
1777399426319,2062389,-0.85,-0.51,0.13,15.69,-1.46,-22.64
1777399426319,2062399,-0.88,-0.50,0.15,15.01,-1.40,-23.13
1777399426320,2062409,-0.87,-0.40,0.38,13.79,-3.97,-22.34
1777399426320,2062419,-0.91,-0.45,0.35,1.53,-15.38,-20.08
1777399426320,2062429,-0.91,-0.51,0.22,4.76,-30.21,-18.62
1777399426320,2062439,-0.87,-0.51,0.10,12.63,-35.71,-19.90
1777399426320,2062449,-0.85,-0.50,0.03,11.29,-30.64,-22.52
1777399426320,2062459,-0.78,-0.56,0.04,11.05,-19.35,-22.52
1777399426320,2062469,-0.81,-0.54,0.06,14.65,-7.32,-25.21
1777399426320,2062479,-0.80,-0.53,0.10,15.81,3.05,-28.63
1777399426320,2062489,-0.80,-0.50,0.16,17.46,8.06,-29.24
1777399426321,2062499,-0.78,-0.49,0.20,19.29,7.87,-27.22
1777399426321,2062509,-0.77,-0.45,0.26,19.59,4.21,-23.99
1777399426321,2062519,-0.81,-0.49,0.26,16.54,-1.46,-19.65
1777399426321,2062529,-0.80,-0.50,0.25,16.05,-8.06,-16.72
1777399426321,2062539,-0.81,-0.51,0.25,15.01,-13.98,-16.54
1777399426321,2062549,-0.79,-0.52,0.23,14.65,-19.04,-16.30
1777399426321,2062569,-0.80,-0.50,0.21,19.35,-19.29,-14.59
1777399426321,2062589,-0.77,-0.50,0.25,19.47,-12.27,-11.11
1777399426321,2062609,-0.76,-0.52,0.28,15.75,-7.45,-7.75
1777399426322,2062629,-0.76,-0.53,0.28,9.52,-7.08,-4.15
1777399426322,2062639,-0.76,-0.54,0.28,6.04,-8.30,-1.65
1777399426322,2062649,-0.77,-0.55,0.28,2.69,-10.01,0.61
1777399426322,2062659,-0.78,-0.55,0.27,-0.31,-12.02,2.14
1777399426322,2062669,-0.78,-0.54,0.26,-3.23,-13.06,3.78
1777399426322,2062679,-0.78,-0.55,0.24,-6.71,-13.00,5.25
1777399426322,2062689,-0.79,-0.56,0.23,-9.89,-11.66,6.29
1777399426322,2062699,-0.81,-0.55,0.23,-10.68,-9.09,6.10
1777399426322,2062709,-0.83,-0.55,0.23,-10.86,-5.92,5.62
1777399426323,2062719,-0.84,-0.56,0.21,-10.31,-3.05,4.33
1777399426323,2062729,-0.84,-0.57,0.21,-8.73,-0.61,2.62
1777399426323,2062739,-0.84,-0.55,0.20,-7.20,0.79,0.98
1777399426323,2062749,-0.84,-0.54,0.20,-5.62,1.46,-0.55
1777399426323,2062759,-0.85,-0.54,0.20,-5.25,1.34,-1.28
1777399426323,2062769,-0.85,-0.53,0.22,-4.82,-0.37,-1.16
1777399426323,2062779,-0.85,-0.53,0.22,-4.09,-3.30,-1.10
1777399426323,2062789,-0.84,-0.52,0.22,-3.85,-6.47,-1.95
1777399426323,2062799,-0.81,-0.52,0.21,-4.09,-8.48,-3.23
1777399426324,2062809,-0.80,-0.51,0.19,-4.21,-8.67,-3.54
1777399426324,2062819,-0.79,-0.49,0.19,-4.09,-7.26,-3.05
1777399426324,2062829,-0.79,-0.50,0.19,-3.91,-5.31,-2.32
1777399426324,2062839,-0.80,-0.50,0.20,-3.60,-3.91,-1.65
1777399426324,2062849,-0.80,-0.50,0.21,-3.11,-3.36,-0.85
1777399426324,2062859,-0.81,-0.50,0.21,-2.38,-3.60,-0.43
1777399426324,2062869,-0.82,-0.50,0.22,-1.53,-4.39,-0.55
1777399426324,2062879,-0.81,-0.50,0.22,-0.79,-5.49,-1.16
1777399426324,2062889,-0.81,-0.49,0.22,0.24,-6.35,-1.53
1777399426325,2062899,-0.82,-0.47,0.22,1.34,-6.16,-2.56
1777399426325,2062919,-0.79,-0.49,0.23,-0.61,-5.80,-3.36
1777399426325,2062939,-0.79,-0.49,0.22,-1.65,-5.86,-1.65
1777399426325,2062959,-0.79,-0.50,0.21,0.18,-6.23,0.92
1777399426325,2062969,-0.80,-0.51,0.21,1.59,-5.98,2.08
1777399426325,2062979,-0.81,-0.50,0.22,2.32,-5.43,1.28
1777399426325,2062989,-0.80,-0.50,0.22,2.32,-4.94,0.18
1777399426325,2062999,-0.81,-0.50,0.22,2.32,-4.70,-0.31
1777399426325,2063009,-0.82,-0.50,0.22,2.75,-4.46,-0.43
1777399426326,2063019,-0.82,-0.51,0.23,2.56,-4.15,-0.73
1777399426326,2063029,-0.82,-0.52,0.24,1.59,-5.00,-0.98
1777399426326,2063039,-0.83,-0.52,0.24,1.71,-6.77,-0.55
1777399426326,2063049,-0.84,-0.52,0.23,2.26,-8.24,-0.18
1777399426326,2063059,-0.83,-0.53,0.24,1.89,-8.97,-1.28
1777399426326,2063069,-0.82,-0.52,0.23,1.28,-9.16,-2.56
1777399426326,2063079,-0.82,-0.52,0.23,1.04,-8.61,-2.44
1777399426326,2063089,-0.83,-0.52,0.23,0.92,-7.26,-2.20
1777399426326,2063099,-0.82,-0.51,0.23,0.61,-5.98,-2.75
1777399426326,2063109,-0.82,-0.52,0.23,0.06,-5.62,-3.60
1777399426327,2063119,-0.82,-0.51,0.22,0.06,-5.13,-4.03
1777399426327,2063129,-0.82,-0.51,0.22,0.49,-4.46,-4.15
1777399426327,2063139,-0.82,-0.50,0.23,0.06,-3.91,-4.58
1777399426327,2063149,-0.83,-0.50,0.23,-0.55,-3.97,-5.13
1777399426327,2063159,-0.82,-0.50,0.23,-0.79,-4.76,-4.76
1777399426327,2063169,-0.83,-0.50,0.22,-0.85,-5.37,-4.15
1777399426327,2063179,-0.83,-0.49,0.22,-0.79,-5.43,-4.03
1777399426327,2063189,-0.82,-0.50,0.22,-1.22,-5.19,-3.97
1777399426328,2063199,-0.81,-0.49,0.22,-2.08,-4.88,-4.52
1777399426328,2063209,-0.81,-0.49,0.21,-2.62,-4.64,-4.58
1777399426328,2063219,-0.80,-0.49,0.21,-2.87,-4.33,-3.54
1777399426328,2063229,-0.80,-0.49,0.21,-2.93,-4.15,-2.75
1777399426328,2063239,-0.81,-0.49,0.20,-2.50,-4.39,-2.26
1777399426328,2063259,-0.81,-0.49,0.21,-1.16,-6.04,-3.48
1777399426328,2063279,-0.81,-0.49,0.20,0.67,-5.68,-2.14
1777399426328,2063299,-0.82,-0.50,0.21,1.77,-4.64,-3.05
1777399426328,2063319,-0.82,-0.50,0.22,2.44,-4.88,-3.97
1777399426329,2063329,-0.82,-0.50,0.22,2.26,-5.49,-3.91
1777399426329,2063339,-0.83,-0.50,0.22,2.32,-5.55,-3.36
1777399426329,2063349,-0.83,-0.50,0.22,2.14,-5.07,-3.23
1777399426329,2063359,-0.84,-0.50,0.22,1.40,-4.70,-3.78
1777399426329,2063369,-0.84,-0.51,0.22,0.73,-4.94,-4.15
1777399426329,2063379,-0.83,-0.50,0.22,0.92,-5.19,-4.58
1777399426329,2063389,-0.83,-0.50,0.21,1.04,-4.94,-4.82
1777399426329,2063399,-0.82,-0.51,0.21,1.28,-4.46,-5.07
1777399426329,2063409,-0.82,-0.51,0.21,1.34,-3.85,-5.49
1777399426329,2063419,-0.82,-0.50,0.21,1.77,-3.60,-5.80
1777399426330,2063429,-0.82,-0.50,0.21,2.26,-3.60,-5.49
1777399426330,2063439,-0.83,-0.50,0.22,2.62,-3.91,-5.37
1777399426330,2063449,-0.83,-0.49,0.22,2.56,-4.64,-5.74
1777399426330,2063459,-0.82,-0.49,0.22,2.26,-5.62,-6.16
1777399426330,2063469,-0.81,-0.49,0.21,2.01,-5.80,-5.92
1777399426330,2063479,-0.81,-0.49,0.20,1.71,-4.88,-5.13
1777399426330,2063489,-0.80,-0.49,0.20,1.16,-3.60,-4.76
1777399426330,2063499,-0.81,-0.50,0.20,0.79,-2.75,-4.27
1777399426330,2063509,-0.81,-0.50,0.21,1.10,-2.62,-3.72
1777399426331,2063519,-0.82,-0.50,0.21,1.65,-3.36,-3.42
1777399426331,2063529,-0.83,-0.50,0.22,2.08,-4.33,-3.48
1777399426331,2063539,-0.83,-0.50,0.22,2.38,-5.31,-4.15
1777399426331,2063549,-0.83,-0.50,0.22,2.14,-5.80,-5.19
1777399426331,2063559,-0.82,-0.50,0.21,1.83,-5.80,-5.92
1777399426331,2063569,-0.82,-0.50,0.21,1.34,-5.07,-6.16
1777399426331,2063579,-0.82,-0.50,0.21,0.73,-4.21,-5.92
1777399426331,2063589,-0.82,-0.50,0.21,0.31,-3.48,-5.98
1777399426331,2063609,-0.82,-0.51,0.21,0.24,-4.39,-4.52
1777399426332,2063629,-0.83,-0.51,0.20,2.20,-6.16,-5.49
1777399426332,2063649,-0.82,-0.51,0.19,4.88,-3.72,-7.20
1777399426332,2063659,-0.83,-0.50,0.23,2.62,-3.66,-7.57
1777399426332,2063669,-0.82,-0.49,0.22,2.38,-3.85,-7.57
1777399426332,2063679,-0.82,-0.49,0.21,1.77,-5.19,-7.45
1777399426332,2063689,-0.82,-0.49,0.21,1.34,-5.98,-7.26
1777399426332,2063699,-0.82,-0.51,0.20,1.71,-6.23,-6.59
1777399426332,2063709,-0.82,-0.51,0.20,1.89,-6.04,-6.16
1777399426332,2063719,-0.82,-0.51,0.20,2.01,-5.68,-7.02
1777399426332,2063729,-0.81,-0.50,0.20,2.01,-5.25,-7.75
1777399426333,2063739,-0.82,-0.50,0.21,1.83,-4.58,-7.14
1777399426333,2063749,-0.82,-0.50,0.21,1.40,-3.85,-6.53
1777399426333,2063759,-0.82,-0.50,0.21,0.98,-3.91,-6.23
1777399426333,2063769,-0.82,-0.50,0.21,0.73,-3.97,-5.74
1777399426333,2063779,-0.83,-0.50,0.21,0.49,-3.85,-5.92
1777399426333,2063789,-0.83,-0.51,0.21,0.49,-3.72,-6.71
1777399426333,2063799,-0.83,-0.51,0.21,0.67,-4.52,-7.32
1777399426333,2063809,-0.83,-0.52,0.21,1.16,-5.19,-7.75
1777399426333,2063819,-0.82,-0.52,0.21,1.77,-5.98,-8.06
1777399426333,2063829,-0.82,-0.51,0.21,2.01,-6.59,-8.18
1777399426334,2063839,-0.82,-0.51,0.21,2.14,-6.35,-8.18
1777399426334,2063849,-0.81,-0.50,0.21,1.59,-5.55,-8.12
1777399426334,2063859,-0.82,-0.51,0.21,0.92,-4.39,-7.63
1777399426334,2063869,-0.82,-0.51,0.21,0.73,-3.23,-7.51
1777399426334,2063879,-0.83,-0.50,0.22,0.31,-2.44,-8.00
1777399426334,2063889,-0.82,-0.51,0.21,-0.24,-2.81,-8.42
1777399426334,2063899,-0.81,-0.52,0.21,-0.49,-3.78,-8.24
1777399426334,2063909,-0.81,-0.52,0.20,0.00,-4.64,-7.87
1777399426334,2063919,-0.80,-0.52,0.19,0.49,-5.00,-7.63
1777399426334,2063929,-0.79,-0.51,0.19,0.98,-5.00,-7.14
1777399426334,2063949,-0.80,-0.51,0.19,1.65,-4.52,-7.02
1777399426335,2063969,-0.80,-0.51,0.20,1.95,-4.39,-6.59
1777399426335,2063989,-0.81,-0.51,0.21,1.77,-4.27,-5.68
1777399426335,2064009,-0.81,-0.51,0.21,1.59,-4.82,-6.10
1777399426335,2064019,-0.81,-0.52,0.21,1.71,-5.31,-5.98
1777399426335,2064029,-0.80,-0.51,0.21,2.08,-5.31,-5.80
1777399426335,2064039,-0.81,-0.52,0.21,1.83,-5.25,-5.68
1777399426335,2064049,-0.81,-0.52,0.21,1.65,-5.00,-5.80
1777399426335,2064059,-0.81,-0.52,0.21,1.46,-4.82,-6.10
1777399426335,2064069,-0.82,-0.52,0.21,1.65,-4.70,-5.98
1777399426335,2064079,-0.83,-0.51,0.21,1.89,-4.33,-5.74
1777399426336,2064089,-0.83,-0.51,0.22,1.46,-4.15,-5.80
1777399426336,2064099,-0.82,-0.52,0.21,0.73,-4.46,-6.04
1777399426336,2064109,-0.81,-0.52,0.20,0.24,-4.82,-6.47
1777399426336,2064119,-0.80,-0.52,0.19,0.12,-4.70,-6.41
1777399426336,2064129,-0.80,-0.52,0.19,0.49,-4.15,-6.23
1777399426336,2064139,-0.80,-0.52,0.19,0.92,-3.85,-5.92
1777399426336,2064149,-0.80,-0.53,0.20,1.40,-4.27,-5.43
1777399426336,2064159,-0.80,-0.52,0.20,1.95,-5.19,-4.88
1777399426336,2064169,-0.81,-0.52,0.20,2.44,-5.43,-4.70
1777399426336,2064179,-0.81,-0.52,0.20,2.50,-5.31,-5.00
1777399426337,2064189,-0.81,-0.51,0.21,2.01,-4.94,-5.13
1777399426337,2064199,-0.81,-0.51,0.20,1.40,-4.64,-5.00
1777399426337,2064209,-0.81,-0.51,0.20,0.98,-4.33,-4.58
1777399426337,2064219,-0.81,-0.51,0.19,0.73,-3.72,-4.15
1777399426337,2064229,-0.82,-0.52,0.19,0.92,-3.30,-4.21
1777399426337,2064239,-0.82,-0.52,0.20,1.22,-4.09,-4.39
1777399426337,2064249,-0.81,-0.52,0.20,1.65,-5.62,-4.58
1777399426337,2064259,-0.81,-0.52,0.19,1.89,-6.59,-4.46
1777399426337,2064269,-0.80,-0.52,0.19,2.14,-6.59,-4.21
1777399426337,2064279,-0.81,-0.52,0.19,2.20,-5.55,-4.27
1777399426338,2064299,-0.82,-0.52,0.20,1.59,-4.21,-5.25
1777399426338,2064319,-0.81,-0.52,0.19,2.08,-4.58,-5.07
1777399426338,2064339,-0.81,-0.52,0.20,2.56,-4.52,-5.55
1777399426338,2064359,-0.81,-0.52,0.18,2.38,-5.62,-5.68
1777399426338,2064369,-0.81,-0.52,0.19,2.99,-5.80,-5.13
1777399426338,2064379,-0.81,-0.53,0.19,3.48,-5.92,-5.07
1777399426338,2064389,-0.81,-0.53,0.19,3.78,-6.10,-5.19
1777399426338,2064399,-0.80,-0.53,0.19,3.97,-5.86,-5.25
1777399426338,2064409,-0.81,-0.52,0.19,3.97,-5.13,-5.19
1777399426338,2064419,-0.81,-0.52,0.19,3.66,-4.03,-5.43
1777399426339,2064429,-0.81,-0.52,0.20,3.17,-2.93,-5.49
1777399426339,2064439,-0.82,-0.52,0.20,2.87,-2.14,-5.07
1777399426339,2064449,-0.83,-0.52,0.19,3.11,-2.01,-5.00
1777399426339,2064459,-0.84,-0.53,0.19,3.54,-2.38,-5.25
1777399426339,2064469,-0.84,-0.53,0.19,3.85,-3.05,-5.68
1777399426339,2064479,-0.84,-0.53,0.18,4.52,-3.17,-6.10
1777399426339,2064489,-0.83,-0.53,0.17,5.25,-2.32,-6.29
1777399426339,2064499,-0.83,-0.54,0.17,5.68,-1.10,-6.41
1777399426339,2064509,-0.82,-0.54,0.17,6.16,-0.49,-6.53
1777399426339,2064519,-0.81,-0.54,0.17,6.71,-0.55,-6.65
1777399426340,2064529,-0.80,-0.53,0.16,7.63,-0.24,-6.53
1777399426340,2064539,-0.80,-0.53,0.15,8.54,0.98,-6.90
1777399426340,2064549,-0.81,-0.53,0.16,9.16,2.62,-7.45
1777399426340,2064559,-0.82,-0.53,0.17,9.64,2.75,-7.20
1777399426340,2064569,-0.82,-0.53,0.17,10.01,1.83,-7.39
1777399426340,2064579,-0.82,-0.52,0.17,10.01,0.73,-7.51
1777399426340,2064589,-0.84,-0.51,0.17,9.89,-0.55,-6.90
1777399426341,2064599,-0.85,-0.50,0.18,9.28,-3.60,-7.14
1777399426341,2064609,-0.84,-0.46,0.16,8.12,-8.91,-8.06
1777399426341,2064619,-0.82,-0.42,0.13,6.90,-13.79,-7.26
1777399426341,2064639,-0.84,-0.35,0.08,-3.36,-13.18,0.12
1777399426357,2064659,-0.87,-0.29,0.05,-19.53,-2.20,4.52
1777399426377,2064679,-0.93,-0.42,-0.09,-28.08,3.23,4.58
1777399426397,2064699,-0.95,-0.47,-0.12,-28.26,-5.74,0.61
1777399426407,2064709,-0.98,-0.37,-0.10,-28.08,-16.17,-0.79
1777399426417,2064719,-0.96,-0.30,-0.09,-27.40,-29.72,2.08
1777399426427,2064729,-0.89,-0.36,-0.13,-29.54,-40.41,7.87
1777399426437,2064739,-0.86,-0.50,-0.11,-35.46,-45.35,13.31
1777399426447,2064749,-0.82,-0.65,-0.10,-38.57,-43.09,14.65
1777399426457,2064759,-0.78,-0.65,-0.13,-35.52,-33.63,10.56
1777399426467,2064769,-0.85,-0.63,-0.08,-25.33,-24.29,9.22
1777399426477,2064779,-0.86,-0.67,-0.01,-18.19,-15.75,7.39
1777399426487,2064789,-0.90,-0.60,0.06,-14.34,-16.85,2.14
1777399426497,2064799,-0.91,-0.54,0.08,-12.45,-24.35,1.04
1777399426507,2064809,-0.87,-0.61,0.09,-18.43,-32.23,5.62
1777399426517,2064819,-0.82,-0.63,0.06,-29.24,-38.82,13.37
1777399426527,2064829,-0.79,-0.64,0.03,-39.98,-37.72,23.86
1777399426537,2064839,-0.81,-0.62,-0.01,-52.12,-31.43,36.56
1777399426547,2064849,-0.83,-0.63,-0.06,-65.98,-22.58,53.53
1777399426557,2064859,-0.92,-0.62,-0.08,-78.61,-13.79,72.27
1777399426567,2064869,-1.08,-0.70,-0.11,-90.82,-10.07,92.47
1777399426577,2064879,-1.29,-0.85,-0.16,-101.01,-12.51,106.51
1777399426587,2064889,-1.48,-0.96,-0.19,-109.50,-26.92,110.72
1777399426597,2064899,-1.61,-1.11,-0.24,-123.05,-53.34,115.78
1777399426607,2064909,-1.76,-1.35,-0.38,-151.98,-83.07,128.30
1777399426617,2064919,-1.99,-1.53,-0.60,-195.92,-104.31,154.17
1777399426627,2064929,-2.33,-1.93,-0.82,-262.27,-110.17,204.59
1777399426637,2064939,-2.85,-2.95,-1.56,-360.78,-109.99,270.45
1777399426647,2064949,-3.37,-4.00,-2.69,-464.23,-106.51,326.35
1777399426657,2064959,-3.67,-4.00,-3.73,-516.30,-86.55,336.49
1777399426667,2064969,-3.07,-4.00,-4.00,-461.30,2.99,135.93
1777399426687,2064989,0.26,-4.00,2.04,-31.37,92.04,-16.66
1777399426707,2065009,3.74,-3.19,4.00,-488.04,181.58,255.31
1777399426727,2065029,1.96,-1.61,4.00,-763.37,325.74,533.02
1777399426747,2065049,0.70,0.58,4.00,-640.69,420.65,515.81
1777399426758,2065059,0.29,1.43,4.00,-581.73,401.73,439.82
1777399426767,2065069,0.11,1.67,4.00,-511.23,361.51,343.32
1777399426777,2065079,0.02,1.94,4.00,-435.67,312.32,224.12
1777399426787,2065089,0.18,2.14,3.69,-352.66,257.14,107.18
1777399426797,2065099,0.52,2.55,3.18,-252.62,200.81,5.80
1777399426807,2065109,0.83,3.23,2.97,-163.70,152.95,-65.98
1777399426817,2065119,0.98,3.70,2.70,-113.46,110.78,-89.48
1777399426827,2065129,0.84,3.97,1.97,-95.46,84.96,-85.39
1777399426837,2065139,0.68,3.76,1.89,-112.98,85.75,-75.20
1777399426847,2065149,0.50,3.57,1.76,-119.57,74.65,-79.65
1777399426857,2065159,0.40,3.42,1.50,-106.63,42.72,-94.85
1777399426867,2065169,0.28,3.20,1.14,-92.65,8.42,-115.17
1777399426877,2065179,0.23,3.13,0.85,-69.27,-16.42,-137.02
1777399426887,2065189,0.22,3.12,0.55,-40.28,-36.13,-143.55
1777399426897,2065199,0.19,2.95,0.27,-15.87,-48.46,-132.63
1777399426907,2065209,0.10,2.81,0.07,0.98,-45.72,-111.82
1777399426917,2065219,-0.12,2.38,0.07,17.94,-36.99,-85.08
1777399426927,2065229,-0.38,2.02,-0.01,45.04,-30.27,-63.11
1777399426937,2065239,-0.63,1.75,-0.04,79.28,-23.19,-50.60
1777399426947,2065249,-0.87,1.50,0.01,110.53,-20.63,-44.80
1777399426957,2065259,-1.07,1.26,0.04,136.90,-28.20,-46.69
1777399426967,2065269,-1.19,1.08,0.07,160.95,-40.28,-51.39
1777399426977,2065279,-1.24,0.90,-0.04,179.32,-52.12,-55.97
1777399426987,2065289,-1.40,0.67,0.23,186.71,-65.92,-61.22
1777399426997,2065299,-1.42,0.70,0.04,184.63,-78.12,-71.17
1777399427007,2065309,-1.37,0.58,0.29,182.43,-63.54,-74.28
1777399427027,2065329,-1.35,0.38,0.16,193.73,-31.01,-55.30
1777399427047,2065349,-1.40,-0.17,0.08,200.50,-27.28,-67.99
1777399427067,2065369,-1.19,-0.32,-0.03,237.49,-36.99,-89.60
1777399427087,2065389,-0.97,-0.24,-0.02,264.40,-33.14,-107.30
1777399427097,2065399,-0.86,-0.16,-0.03,266.30,-26.31,-108.58
1777399427107,2065409,-0.80,-0.09,-0.01,257.14,-15.93,-103.45
1777399427117,2065419,-0.76,-0.12,-0.05,238.77,-4.76,-90.09
1777399427127,2065429,-0.79,-0.17,-0.09,221.74,5.74,-73.55
1777399427137,2065439,-0.86,-0.25,-0.22,213.62,18.13,-60.24
1777399427147,2065449,-0.96,-0.34,-0.29,214.05,33.69,-52.00
1777399427157,2065459,-1.01,-0.49,-0.38,225.59,45.78,-49.13
1777399427167,2065469,-1.01,-0.54,-0.45,249.45,53.53,-53.22
1777399427177,2065479,-0.98,-0.50,-0.47,274.60,58.53,-64.39
1777399427187,2065489,-0.97,-0.38,-0.30,286.01,59.75,-79.65
1777399427197,2065499,-0.97,-0.38,-0.20,285.28,48.40,-90.15
1777399427207,2065509,-0.93,-0.33,0.05,270.45,25.63,-96.92
1777399427217,2065519,-0.84,-0.37,0.06,254.58,-4.46,-97.41
1777399427227,2065529,-0.76,-0.35,0.10,229.49,-30.88,-95.76
1777399427237,2065539,-0.70,-0.43,0.03,206.36,-47.00,-88.20
1777399427247,2065549,-0.62,-0.51,-0.07,186.95,-50.66,-77.76
