host_time_ms,arduino_time_ms,ax,ay,az,gx,gy,gz
1777399402875,2026089,0.01,-0.01,1.00,2.56,-4.82,-5.13
1777399402875,2026099,0.02,-0.00,1.00,2.44,-4.76,-5.37
1777399402876,2026109,0.01,-0.01,1.00,2.56,-4.76,-5.13
1777399402876,2026119,0.01,-0.01,1.00,2.62,-4.82,-4.94
1777399402876,2026129,0.01,-0.01,1.00,2.44,-4.82,-5.25
1777399402877,2026139,0.01,-0.01,1.00,2.32,-4.76,-5.68
1777399402877,2026149,0.02,-0.01,1.00,2.32,-4.76,-5.68
1777399402877,2026159,0.01,-0.01,1.00,2.32,-4.82,-5.74
1777399402877,2026169,0.01,-0.01,1.00,2.38,-4.76,-5.55
1777399402877,2026179,0.01,-0.00,1.00,2.38,-4.82,-5.49
1777399402878,2026189,0.01,-0.01,1.00,2.44,-4.82,-5.37
1777399402878,2026199,0.01,-0.01,1.00,2.56,-4.76,-5.25
1777399402878,2026209,0.01,-0.01,1.00,2.44,-4.82,-5.25
1777399402878,2026219,0.01,-0.01,1.00,2.50,-4.82,-5.37
1777399402879,2026229,0.01,-0.01,1.00,2.44,-4.82,-5.43
1777399402879,2026239,0.01,-0.01,1.00,2.44,-4.88,-5.37
1777399402879,2026249,0.01,-0.01,1.00,2.50,-4.82,-5.13
1777399402879,2026259,0.01,-0.01,1.00,2.56,-4.88,-5.00
1777399402880,2026269,0.01,-0.01,1.00,2.50,-4.82,-5.00
1777399402880,2026279,0.01,-0.01,1.00,2.62,-4.82,-5.19
1777399402880,2026299,0.01,-0.01,1.00,2.50,-4.76,-5.31
1777399402880,2026319,0.01,-0.01,1.00,2.44,-4.76,-5.43
1777399402881,2026339,0.01,-0.01,1.00,2.38,-4.70,-5.55
1777399402881,2026359,0.01,-0.01,1.00,2.44,-4.76,-5.37
1777399402881,2026369,0.01,-0.00,1.00,2.62,-4.88,-4.88
1777399402881,2026379,0.01,-0.01,1.00,2.44,-4.76,-5.37
1777399402881,2026389,0.01,-0.01,1.00,2.32,-4.76,-5.74
1777399402882,2026399,0.01,-0.01,1.00,2.50,-4.76,-5.49
1777399402882,2026409,0.01,-0.01,1.00,2.56,-4.88,-5.13
1777399402882,2026419,0.01,-0.01,1.00,2.44,-4.88,-5.43
1777399402882,2026429,0.01,-0.00,1.00,2.32,-4.82,-5.86
1777399402882,2026439,0.01,-0.01,1.00,2.44,-4.82,-5.62
1777399402883,2026449,0.01,-0.01,1.00,2.50,-4.70,-5.37
1777399402883,2026459,0.01,-0.01,1.00,2.50,-4.82,-5.19
1777399402883,2026469,0.01,-0.01,1.00,2.62,-4.88,-4.94
1777399402883,2026479,0.01,-0.01,1.00,2.56,-4.76,-5.13
1777399402884,2026489,0.01,-0.01,1.00,2.44,-4.82,-5.43
1777399402884,2026499,0.01,-0.01,1.00,2.56,-4.82,-5.25
1777399402884,2026509,0.01,-0.01,0.99,2.62,-4.94,-5.00
1777399402884,2026519,0.01,-0.01,0.99,2.62,-4.88,-5.00
1777399402884,2026529,0.01,-0.01,0.99,2.69,-4.82,-4.94
1777399402885,2026539,0.01,-0.01,0.99,2.56,-4.82,-5.07
1777399402885,2026549,0.01,-0.01,1.00,2.56,-4.82,-5.00
1777399402885,2026559,0.01,-0.01,1.00,2.50,-4.82,-5.07
1777399402885,2026569,0.01,-0.01,1.00,2.56,-4.88,-5.07
1777399402886,2026579,0.01,-0.01,1.00,2.56,-4.82,-5.00
1777399402886,2026589,0.01,-0.01,1.00,2.69,-4.82,-5.13
1777399402886,2026599,0.01,-0.01,1.00,2.62,-4.76,-5.07
1777399402886,2026609,0.01,-0.01,1.00,2.62,-4.88,-5.25
1777399402886,2026619,0.01,-0.01,0.99,2.50,-4.88,-5.25
1777399402887,2026629,0.01,-0.01,0.99,2.44,-4.82,-5.31
1777399402887,2026649,0.01,-0.01,1.00,2.38,-4.82,-5.19
1777399402887,2026669,0.01,-0.01,1.00,2.38,-4.76,-5.31
1777399402887,2026689,0.01,-0.01,1.00,2.44,-4.88,-5.37
1777399402887,2026709,0.01,-0.01,1.00,2.56,-4.82,-5.19
1777399402887,2026719,0.01,-0.01,1.00,2.50,-4.76,-5.25
1777399402888,2026729,0.01,-0.01,1.00,2.56,-4.76,-5.19
1777399402888,2026739,0.01,-0.01,1.00,2.62,-4.82,-5.00
1777399402888,2026749,0.01,-0.01,1.00,2.44,-4.82,-5.43
1777399402888,2026759,0.01,-0.00,1.00,2.32,-4.76,-5.86
1777399402888,2026769,0.01,-0.01,1.00,2.32,-4.76,-5.80
1777399402889,2026779,0.01,-0.01,1.00,2.38,-4.76,-5.80
1777399402889,2026789,0.01,-0.01,1.00,2.38,-4.70,-5.62
1777399402889,2026799,0.01,-0.00,1.00,2.44,-4.82,-5.55
1777399402889,2026809,0.01,-0.01,1.00,2.44,-4.76,-5.55
1777399402890,2026819,0.01,-0.01,1.00,2.50,-4.76,-5.43
1777399402890,2026829,0.01,-0.01,1.00,2.56,-4.76,-5.25
1777399402890,2026839,0.01,-0.01,0.99,2.62,-4.88,-5.13
1777399402890,2026849,0.01,-0.01,1.00,2.50,-4.82,-5.31
1777399402890,2026859,0.01,-0.01,1.00,2.44,-4.76,-5.62
1777399402891,2026869,0.01,-0.01,0.99,2.38,-4.76,-5.43
1777399402891,2026879,0.01,-0.01,1.00,2.38,-4.76,-5.25
1777399402891,2026889,0.01,-0.01,1.00,2.44,-4.76,-5.43
1777399402891,2026899,0.01,-0.01,1.00,2.50,-4.76,-5.49
1777399402891,2026909,0.01,-0.01,1.00,2.50,-4.82,-5.37
1777399402891,2026919,0.01,-0.01,1.00,2.56,-4.82,-5.25
1777399402892,2026929,0.01,-0.01,1.00,2.56,-4.76,-5.37
1777399402892,2026939,0.01,-0.01,1.00,2.44,-4.70,-5.43
1777399402892,2026949,0.01,-0.01,1.00,2.44,-4.82,-5.31
1777399402892,2026959,0.01,-0.01,1.00,2.56,-4.82,-5.07
1777399402892,2026969,0.01,-0.01,1.00,2.44,-4.82,-5.19
1777399402893,2026989,0.01,-0.01,1.00,2.44,-4.76,-5.49
1777399402893,2027009,0.01,-0.01,0.99,2.62,-4.82,-5.25
1777399402893,2027029,0.01,-0.01,1.00,2.56,-4.76,-5.13
1777399402893,2027049,0.01,-0.01,1.00,2.56,-4.82,-5.00
1777399402893,2027059,0.01,-0.01,0.99,2.62,-4.76,-4.94
1777399402893,2027069,0.01,-0.01,1.00,2.50,-4.82,-5.19
1777399402894,2027079,0.01,-0.01,1.00,2.56,-4.76,-5.13
1777399402894,2027089,0.01,-0.01,0.99,2.56,-4.76,-5.00
1777399402894,2027099,0.01,-0.01,1.00,2.56,-4.88,-5.19
1777399402894,2027109,0.01,-0.01,1.00,2.50,-4.88,-5.31
1777399402894,2027119,0.01,-0.01,1.00,2.38,-4.70,-5.55
1777399402894,2027129,0.02,-0.00,1.00,2.26,-4.64,-5.80
1777399402895,2027139,0.01,-0.01,1.00,2.50,-4.76,-5.37
1777399402895,2027149,0.01,-0.01,1.00,2.56,-4.88,-5.00
1777399402895,2027159,0.01,-0.01,0.99,2.56,-4.82,-5.07
1777399402895,2027169,0.01,-0.01,0.99,2.50,-4.82,-5.31
1777399402895,2027179,0.01,-0.01,1.00,2.50,-4.82,-5.43
1777399402895,2027189,0.01,-0.01,0.99,2.50,-4.82,-5.43
1777399402896,2027199,0.01,-0.01,0.99,2.44,-4.82,-5.43
1777399402896,2027209,0.01,-0.01,0.99,2.44,-4.82,-5.49
1777399402896,2027219,0.01,-0.01,0.99,2.50,-4.76,-5.37
1777399402896,2027229,0.01,-0.01,0.99,2.50,-4.70,-5.25
1777399402896,2027239,0.01,-0.01,0.99,2.44,-4.82,-5.37
1777399402896,2027249,0.01,-0.01,0.99,2.50,-4.82,-5.62
1777399402897,2027259,0.01,-0.01,0.99,2.56,-4.82,-5.25
1777399402897,2027269,0.01,-0.01,1.00,2.56,-4.88,-4.94
1777399402897,2027279,0.01,-0.01,1.00,2.50,-4.82,-5.07
1777399402897,2027289,0.01,-0.01,0.99,2.56,-4.82,-5.25
1777399402897,2027299,0.01,-0.01,1.00,2.62,-4.82,-5.13
1777399402898,2027309,0.01,-0.01,1.00,2.62,-4.82,-5.00
1777399402898,2027319,0.01,-0.01,0.99,2.56,-4.76,-5.00
1777399402898,2027339,0.01,-0.01,1.00,2.44,-4.82,-5.37
1777399402898,2027359,0.01,-0.00,1.00,2.32,-4.76,-5.74
1777399402899,2027379,0.01,-0.01,1.00,2.69,-4.76,-5.13
1777399402899,2027399,0.01,-0.01,1.00,2.32,-4.76,-5.80
1777399402900,2027409,0.01,-0.00,0.97,2.44,-4.82,-5.49
1777399402900,2027419,0.01,-0.01,1.00,2.56,-4.82,-4.94
1777399402900,2027429,0.01,-0.00,0.99,2.44,-4.82,-5.19
1777399402900,2027439,0.01,-0.01,1.01,2.32,-4.70,-5.55
1777399402900,2027449,0.01,-0.01,1.01,2.38,-4.82,-5.62
1777399402900,2027459,0.01,-0.01,1.00,2.38,-4.82,-5.80
1777399402901,2027469,0.01,-0.01,1.01,2.50,-4.76,-5.62
1777399402901,2027479,0.01,-0.01,0.99,2.50,-4.82,-5.37
1777399402901,2027489,0.01,-0.00,1.00,2.62,-4.82,-5.25
1777399402901,2027499,0.01,-0.01,1.00,2.69,-4.82,-5.00
1777399402901,2027509,0.01,-0.01,1.00,2.56,-4.82,-4.94
1777399402901,2027519,0.01,-0.01,0.99,2.44,-4.76,-5.00
1777399402902,2027529,0.01,-0.00,1.00,2.38,-4.88,-5.37
1777399402902,2027539,0.01,-0.01,1.01,2.26,-4.70,-5.86
1777399402902,2027549,0.01,-0.01,1.00,2.26,-4.76,-5.80
1777399402902,2027559,0.01,-0.01,1.00,2.38,-4.76,-5.80
1777399402902,2027569,0.01,-0.01,1.00,2.56,-4.82,-5.37
1777399402902,2027579,0.01,-0.01,0.99,2.75,-4.82,-4.94
1777399402902,2027589,0.01,-0.00,1.01,2.56,-4.82,-5.19
1777399402903,2027599,0.01,-0.00,0.99,2.44,-4.82,-5.31
1777399402903,2027609,0.01,-0.01,1.01,2.38,-4.76,-5.62
1777399402903,2027619,0.01,-0.00,0.99,2.32,-4.76,-5.80
1777399402903,2027629,0.01,-0.01,1.00,2.38,-4.82,-5.80
1777399402903,2027639,0.01,-0.00,0.99,2.32,-4.76,-5.68
1777399402903,2027649,0.01,-0.01,1.00,2.50,-4.88,-5.43
1777399402903,2027659,0.01,-0.01,1.00,2.62,-4.82,-5.13
1777399402904,2027669,0.01,-0.01,1.00,2.44,-4.82,-5.68
1777399402904,2027689,0.01,-0.01,1.00,2.56,-4.76,-5.19
1777399402904,2027709,0.01,-0.01,1.00,2.50,-4.82,-5.43
1777399402904,2027729,0.01,-0.01,1.00,2.32,-4.76,-5.43
1777399402904,2027739,0.01,-0.01,1.00,2.44,-4.82,-5.55
1777399402904,2027749,0.01,-0.01,1.00,2.38,-4.76,-5.68
1777399402904,2027759,0.01,-0.01,1.00,2.38,-4.76,-5.49
1777399402905,2027769,0.01,-0.01,1.00,2.50,-4.88,-5.25
1777399402905,2027779,0.02,-0.01,1.00,2.44,-4.82,-5.43
1777399402905,2027789,0.01,-0.01,1.00,2.38,-4.76,-5.68
1777399402905,2027799,0.01,-0.01,1.00,2.44,-4.88,-5.49
1777399402905,2027809,0.01,-0.01,1.00,2.50,-4.94,-5.25
1777399402905,2027819,0.01,-0.01,1.00,2.44,-4.82,-5.25
1777399402905,2027829,0.01,-0.01,1.00,2.50,-4.76,-5.07
1777399402906,2027839,0.01,-0.01,1.00,2.50,-4.88,-5.25
1777399402906,2027849,0.01,-0.01,1.00,2.50,-4.82,-5.43
1777399402906,2027859,0.01,-0.01,1.00,2.56,-4.88,-5.37
1777399402906,2027869,0.01,-0.01,1.00,2.69,-4.88,-5.19
1777399402906,2027879,0.01,-0.01,1.00,2.56,-4.70,-5.37
1777399402906,2027889,0.01,-0.01,1.00,2.44,-4.82,-5.49
1777399402906,2027899,0.01,-0.00,1.00,2.38,-4.82,-5.62
1777399402907,2027909,0.02,-0.00,0.97,2.26,-4.76,-5.86
1777399402907,2027919,0.02,-0.01,1.00,2.20,-4.70,-5.86
1777399402907,2027929,0.02,-0.00,0.99,2.26,-4.88,-5.86
1777399402907,2027939,0.01,-0.01,1.00,2.32,-4.82,-5.62
1777399402907,2027949,0.01,-0.01,1.01,2.44,-4.82,-5.37
1777399402908,2027959,0.01,-0.01,1.00,2.62,-4.82,-5.19
1777399402908,2027969,0.01,-0.01,1.01,2.75,-4.88,-4.94
1777399402908,2027979,0.02,-0.00,0.99,2.56,-4.82,-5.37
1777399402908,2027989,0.01,-0.01,1.00,2.38,-4.76,-5.86
1777399402908,2027999,0.01,-0.00,1.00,2.44,-4.82,-5.74
1777399402908,2028009,0.01,-0.00,1.00,2.50,-4.82,-5.62
1777399402908,2028029,0.01,-0.01,1.00,2.50,-4.82,-5.68
1777399402909,2028049,0.01,-0.01,0.99,2.50,-4.76,-5.68
1777399402909,2028069,0.01,-0.00,0.99,2.62,-4.82,-5.31
1777399402909,2028089,0.01,-0.00,0.99,2.44,-4.76,-5.43
1777399402909,2028099,0.01,-0.00,1.00,2.44,-4.82,-5.49
1777399402909,2028109,0.01,-0.01,1.01,2.44,-4.76,-5.49
1777399402909,2028119,0.01,-0.01,1.01,2.56,-4.82,-5.43
1777399402909,2028129,0.01,-0.00,0.99,2.69,-4.82,-5.19
1777399402910,2028139,0.01,-0.00,0.99,2.69,-4.88,-5.07
1777399402910,2028149,0.01,-0.01,1.00,2.62,-4.88,-5.00
1777399402910,2028159,0.01,-0.01,1.00,2.50,-4.88,-5.13
1777399402910,2028169,0.01,-0.00,1.00,2.38,-4.94,-5.37
1777399402910,2028179,0.01,-0.01,0.99,2.38,-4.82,-5.68
1777399402910,2028189,0.01,-0.00,1.00,2.38,-4.82,-5.43
1777399402910,2028199,0.01,-0.00,0.99,2.44,-4.82,-5.19
1777399402911,2028209,0.01,-0.01,1.00,2.26,-4.82,-5.49
1777399402911,2028219,0.01,-0.01,1.01,2.14,-4.82,-5.80
1777399402911,2028229,0.01,-0.01,1.00,2.32,-4.76,-5.68
1777399402911,2028239,0.01,-0.01,1.00,2.44,-4.82,-5.43
1777399402911,2028249,0.01,-0.01,1.00,2.56,-4.82,-5.19
1777399402911,2028259,0.01,-0.00,0.99,2.62,-4.82,-5.00
1777399402911,2028269,0.01,-0.01,0.99,2.50,-4.76,-5.25
1777399402912,2028279,0.01,-0.01,1.00,2.44,-4.82,-5.49
1777399402912,2028289,0.01,-0.01,1.00,2.50,-4.82,-5.55
1777399402912,2028299,0.01,-0.01,1.00,2.38,-4.76,-5.68
1777399402912,2028309,0.01,-0.01,1.00,2.44,-4.82,-5.43
1777399402912,2028319,0.01,-0.00,1.00,2.56,-4.82,-5.19
1777399402912,2028329,0.01,-0.01,1.00,2.44,-4.82,-5.43
1777399402912,2028339,0.01,-0.01,1.00,2.32,-4.82,-5.86
1777399402912,2028349,0.01,-0.00,1.00,2.32,-4.82,-5.86
1777399402913,2028359,0.01,-0.00,1.00,2.32,-4.88,-5.37
1777399402913,2028379,0.01,-0.01,1.00,2.44,-4.76,-5.25
1777399402913,2028399,0.01,-0.01,1.00,2.32,-4.82,-5.62
1777399402913,2028419,0.01,-0.01,1.00,2.26,-4.76,-5.55
1777399402913,2028429,0.01,-0.01,1.00,2.38,-4.76,-5.43
1777399402913,2028439,0.01,-0.01,1.00,2.56,-4.82,-5.31
1777399402913,2028449,0.01,-0.01,1.00,2.56,-4.82,-5.07
1777399402914,2028459,0.01,-0.01,1.00,2.62,-4.82,-5.25
1777399402914,2028469,0.01,-0.01,1.00,2.44,-4.88,-5.43
1777399402914,2028479,0.01,-0.01,1.00,2.44,-4.82,-5.37
1777399402914,2028489,0.01,-0.01,1.00,2.38,-4.82,-5.49
1777399402914,2028499,0.01,-0.01,1.00,2.44,-4.82,-5.55
1777399402914,2028509,0.01,-0.01,1.00,2.38,-4.94,-5.68
1777399402914,2028519,0.01,-0.01,1.00,2.38,-4.82,-5.68
1777399402914,2028529,0.01,-0.00,0.99,2.32,-4.76,-5.55
1777399402915,2028539,0.01,-0.01,0.99,2.44,-4.82,-5.37
1777399402915,2028549,0.01,-0.01,1.00,2.62,-4.88,-5.13
1777399402915,2028559,0.01,-0.01,1.00,2.62,-4.82,-5.00
1777399402915,2028569,0.01,-0.01,1.00,2.62,-4.76,-4.94
1777399402915,2028579,0.01,-0.01,1.00,2.56,-4.76,-5.19
1777399402915,2028589,0.01,-0.00,0.99,2.44,-4.76,-5.49
1777399402916,2028599,0.01,-0.00,1.00,2.38,-4.76,-5.68
1777399402916,2028609,0.01,-0.00,1.00,2.26,-4.82,-5.86
1777399402916,2028619,0.01,-0.01,0.99,2.44,-4.76,-5.49
1777399402916,2028629,0.01,-0.00,1.00,2.56,-4.70,-5.13
1777399402916,2028639,0.01,-0.01,1.00,2.44,-4.76,-5.37
1777399402916,2028649,0.01,-0.01,1.00,2.32,-4.82,-5.86
1777399402916,2028659,0.01,-0.01,1.00,2.44,-4.82,-5.43
1777399402917,2028669,0.01,-0.01,1.00,2.50,-4.82,-5.19
1777399402917,2028679,0.01,-0.01,1.00,2.56,-4.82,-5.19
1777399402917,2028689,0.01,-0.00,1.00,2.56,-4.76,-5.13
1777399402917,2028699,0.01,-0.01,1.00,2.56,-4.88,-5.07
1777399402917,2028719,0.01,-0.01,1.00,2.56,-4.76,-5.07
1777399402917,2028739,0.01,-0.01,1.00,2.44,-4.76,-5.62
1777399402918,2028759,0.01,-0.01,1.00,2.50,-4.88,-5.55
1777399402918,2028779,0.01,-0.01,1.00,2.56,-4.88,-5.13
1777399402918,2028789,0.01,-0.01,1.00,2.50,-4.82,-5.31
1777399402918,2028799,0.01,-0.00,1.00,2.38,-4.82,-5.74
1777399402918,2028809,0.01,-0.01,1.00,2.32,-4.82,-5.86
1777399402918,2028819,0.01,-0.01,1.00,2.26,-4.82,-5.92
1777399402918,2028829,0.01,-0.01,1.00,2.38,-4.76,-5.86
1777399402919,2028839,0.01,-0.01,1.00,2.38,-4.82,-5.74
1777399402919,2028849,0.01,-0.01,1.00,2.38,-4.82,-5.68
1777399402919,2028859,0.01,-0.01,1.00,2.44,-4.82,-5.62
1777399402919,2028869,0.01,-0.01,0.99,2.38,-4.70,-5.68
1777399402919,2028879,0.01,-0.01,1.00,2.32,-4.76,-5.74
1777399402919,2028889,0.01,-0.01,1.00,2.32,-4.76,-5.68
1777399402919,2028899,0.01,-0.01,1.00,2.38,-4.88,-5.55
1777399402920,2028909,0.01,-0.01,1.00,2.56,-4.82,-5.37
1777399402920,2028919,0.01,-0.01,1.00,2.69,-4.82,-5.07
1777399402920,2028929,0.01,-0.01,1.00,2.62,-4.88,-5.13
1777399402920,2028939,0.01,-0.01,1.00,2.50,-4.82,-5.25
1777399402920,2028949,0.01,-0.01,1.00,2.50,-4.82,-5.25
1777399402920,2028959,0.01,-0.01,1.00,2.50,-4.82,-5.31
1777399402920,2028969,0.01,-0.01,1.00,2.38,-4.82,-5.55
1777399402921,2028979,0.01,-0.01,1.00,2.26,-4.82,-5.80
1777399402921,2028989,0.01,-0.01,1.00,2.38,-4.82,-5.62
1777399402921,2028999,0.01,-0.01,1.00,2.50,-4.82,-5.43
1777399402921,2029009,0.01,-0.01,1.00,2.56,-4.88,-5.25
1777399402921,2029019,0.01,-0.01,1.00,2.69,-4.82,-5.07
1777399402921,2029029,0.01,-0.01,1.00,2.62,-4.76,-5.00
1777399402921,2029039,0.01,-0.01,1.00,2.56,-4.82,-5.07
1777399402921,2029049,0.01,-0.01,1.00,2.62,-4.82,-4.94
1777399402922,2029069,0.01,-0.01,1.00,2.62,-4.82,-5.00
1777399402922,2029089,0.01,-0.01,1.00,2.38,-4.82,-5.80
1777399402922,2029109,0.01,-0.00,1.00,2.50,-4.76,-5.19
1777399402922,2029129,0.01,-0.01,1.00,2.38,-4.76,-5.68
1777399402922,2029139,0.01,-0.01,1.00,2.44,-4.82,-5.49
1777399402922,2029149,0.01,-0.01,1.00,2.44,-4.88,-5.37
1777399402922,2029159,0.01,-0.01,1.00,2.38,-4.82,-5.49
1777399402922,2029169,0.01,-0.01,1.00,2.32,-4.82,-5.68
1777399402923,2029179,0.01,-0.01,1.00,2.38,-4.82,-5.62
1777399402923,2029189,0.01,-0.00,1.00,2.38,-4.76,-5.49
1777399402923,2029199,0.01,-0.01,1.00,2.50,-4.82,-5.25
1777399402923,2029209,0.01,-0.01,1.00,2.62,-4.88,-5.00
1777399402923,2029219,0.01,-0.01,1.00,2.62,-4.82,-5.00
1777399402923,2029229,0.01,-0.01,1.00,2.62,-4.88,-5.00
1777399402923,2029239,0.01,-0.01,1.00,2.56,-4.82,-5.19
1777399402923,2029249,0.01,-0.01,1.00,2.50,-4.82,-5.37
1777399402924,2029259,0.01,-0.01,1.00,2.56,-4.82,-5.13
1777399402924,2029269,0.01,-0.01,1.00,2.69,-4.88,-4.94
1777399402924,2029279,0.01,-0.00,1.00,2.50,-4.76,-5.31
1777399402924,2029289,0.01,-0.00,1.00,2.32,-4.70,-5.86
1777399402924,2029299,0.01,-0.01,1.00,2.38,-4.82,-5.68
1777399402924,2029309,0.01,-0.01,1.00,2.50,-4.82,-5.31
1777399402924,2029319,0.01,-0.00,1.00,2.56,-4.82,-5.25
1777399402925,2029329,0.01,-0.01,1.00,2.62,-4.88,-5.00
1777399402925,2029339,0.01,-0.01,1.00,2.50,-4.76,-5.19
1777399402925,2029349,0.01,-0.01,1.00,2.44,-4.76,-5.43
1777399402925,2029359,0.01,-0.01,1.00,2.50,-4.88,-5.25
1777399402925,2029369,0.01,-0.01,1.00,2.62,-4.82,-5.00
1777399402925,2029379,0.01,-0.01,1.00,2.56,-4.76,-5.19
1777399402925,2029389,0.01,-0.01,1.00,2.50,-4.82,-5.43
1777399402925,2029409,0.02,-0.01,1.00,2.38,-4.82,-5.68
1777399402925,2029429,0.01,-0.01,1.00,2.50,-4.82,-5.25
1777399402926,2029449,0.01,-0.01,1.00,2.44,-4.82,-5.37
1777399402926,2029469,0.02,-0.01,1.00,2.32,-4.82,-5.80
1777399402926,2029479,0.01,-0.01,1.00,2.32,-4.76,-5.74
1777399402926,2029489,0.01,-0.01,1.00,2.44,-4.76,-5.49
1777399402926,2029499,0.01,-0.01,1.00,2.56,-4.82,-5.13
1777399402927,2029509,0.01,-0.00,1.00,2.38,-4.70,-5.49
1777399402927,2029519,0.01,-0.01,1.00,2.26,-4.76,-5.86
1777399402927,2029529,0.01,-0.00,1.00,2.32,-4.76,-5.80
1777399402927,2029539,0.01,-0.00,1.00,2.32,-4.76,-5.80
1777399402927,2029549,0.01,-0.00,1.00,2.32,-4.88,-5.74
1777399402927,2029559,0.01,-0.01,1.00,2.26,-4.76,-5.80
1777399402927,2029569,0.01,-0.01,1.00,2.38,-4.70,-5.49
1777399402927,2029579,0.01,-0.01,1.00,2.56,-4.82,-5.13
1777399402928,2029589,0.01,-0.01,1.00,2.56,-4.88,-5.13
1777399402928,2029599,0.01,-0.00,1.00,2.50,-4.76,-5.19
1777399402928,2029609,0.01,-0.01,1.00,2.50,-4.76,-5.37
1777399402928,2029619,0.01,-0.01,1.00,2.38,-4.82,-5.62
1777399402928,2029629,0.01,-0.00,1.00,2.38,-4.76,-5.68
1777399402928,2029639,0.02,-0.01,1.00,2.38,-4.76,-5.62
1777399402928,2029649,0.01,-0.01,1.00,2.44,-4.76,-5.37
1777399402928,2029659,0.01,-0.01,1.00,2.62,-4.88,-5.00
1777399402929,2029669,0.01,-0.01,1.00,2.56,-4.82,-5.19
1777399402929,2029679,0.01,-0.01,1.00,2.50,-4.82,-5.31
1777399402929,2029689,0.01,-0.01,1.00,2.56,-4.82,-5.13
1777399402929,2029699,0.01,-0.01,1.00,2.50,-4.82,-5.00
1777399402929,2029709,0.01,-0.01,1.00,2.44,-4.88,-5.19
1777399402929,2029719,0.01,-0.00,1.00,2.50,-4.82,-5.31
1777399402929,2029729,0.01,-0.00,1.00,2.38,-4.82,-5.62
1777399402929,2029739,0.01,-0.00,1.00,2.32,-4.82,-5.62
1777399402930,2029759,0.01,-0.01,1.00,2.56,-4.82,-5.19
1777399402930,2029779,0.01,-0.01,1.00,2.50,-4.76,-5.49
1777399402930,2029799,0.01,-0.01,1.00,2.44,-4.82,-5.43
1777399402930,2029819,0.01,-0.01,1.00,2.50,-4.82,-5.31
1777399402930,2029829,0.01,-0.01,1.00,2.44,-4.82,-5.31
1777399402930,2029839,0.01,-0.01,1.00,2.38,-4.76,-5.49
1777399402930,2029849,0.01,-0.01,1.00,2.26,-4.76,-5.74
1777399402930,2029859,0.01,-0.00,1.00,2.26,-4.70,-5.80
1777399402930,2029869,0.01,-0.00,1.00,2.26,-4.70,-5.92
1777399402931,2029879,0.01,-0.01,1.00,2.44,-4.76,-5.55
1777399402931,2029889,0.01,-0.01,1.00,2.56,-4.88,-5.00
1777399402931,2029899,0.01,-0.01,1.00,2.50,-4.82,-5.19
1777399402931,2029909,0.01,-0.01,1.00,2.44,-4.82,-5.25
1777399402931,2029919,0.01,-0.01,1.00,2.56,-4.82,-5.19
1777399402931,2029929,0.01,-0.01,1.00,2.56,-4.82,-5.13
1777399402931,2029939,0.01,-0.01,1.00,2.50,-4.82,-5.31
1777399402931,2029949,0.01,-0.01,1.00,2.38,-4.76,-5.55
1777399402932,2029959,0.01,-0.01,1.00,2.44,-4.82,-5.31
1777399402932,2029969,0.01,-0.01,1.00,2.62,-4.88,-5.00
1777399402932,2029979,0.01,-0.01,1.00,2.56,-4.88,-5.31
1777399402932,2029989,0.02,-0.01,1.00,2.32,-4.76,-5.68
1777399402932,2029999,0.01,-0.01,1.00,2.26,-4.76,-5.74
1777399402932,2030009,0.01,-0.01,1.00,2.32,-4.76,-5.86
1777399402932,2030019,0.02,-0.01,1.00,2.26,-4.76,-5.92
1777399402932,2030029,0.01,-0.01,1.00,2.32,-4.76,-5.86
1777399402933,2030039,0.01,-0.01,1.00,2.38,-4.76,-5.80
1777399402933,2030049,0.01,-0.00,1.00,2.32,-4.76,-5.80
1777399402933,2030059,0.01,-0.01,1.00,2.38,-4.70,-5.74
1777399402933,2030069,0.01,-0.01,1.00,2.38,-4.76,-5.55
1777399402933,2030079,0.01,-0.01,1.00,2.44,-4.82,-5.55
1777399402933,2030099,0.01,-0.01,1.00,2.44,-4.82,-5.37
1777399402933,2030119,0.01,-0.01,1.00,2.56,-4.88,-5.25
1777399402933,2030139,0.01,-0.01,1.00,2.69,-4.94,-4.94
1777399402933,2030159,0.01,-0.01,1.00,2.44,-4.88,-5.31
1777399402934,2030169,0.01,-0.01,1.00,2.50,-4.82,-5.25
1777399402934,2030179,0.01,-0.01,1.00,2.56,-4.82,-5.19
1777399402934,2030189,0.01,-0.01,1.00,2.50,-4.76,-5.49
1777399402934,2030199,0.01,-0.00,1.00,2.32,-4.82,-5.80
1777399402934,2030209,0.01,-0.01,1.00,2.38,-4.70,-5.55
1777399402934,2030219,0.01,-0.01,1.00,2.50,-4.76,-5.25
1777399402934,2030229,0.01,-0.01,1.00,2.50,-4.76,-5.37
1777399402934,2030239,0.02,-0.01,1.00,2.38,-4.76,-5.49
1777399402935,2030249,0.01,-0.01,1.00,2.44,-4.82,-5.55
1777399402935,2030259,0.01,-0.00,0.98,2.38,-4.76,-5.74
1777399402935,2030269,0.01,-0.01,0.99,2.44,-4.70,-5.43
1777399402935,2030279,0.01,-0.01,1.00,2.56,-4.88,-5.07
1777399402935,2030289,0.01,-0.01,1.01,2.44,-4.88,-5.43
1777399402935,2030299,0.01,-0.01,1.00,2.32,-4.82,-5.86
1777399402935,2030309,0.01,-0.00,1.00,2.38,-4.76,-5.68
1777399402935,2030319,0.01,-0.00,1.01,2.56,-4.76,-5.31
1777399402935,2030329,0.01,-0.01,0.99,2.56,-4.82,-5.13
1777399402936,2030339,0.01,-0.01,1.00,2.62,-4.82,-5.00
1777399402936,2030349,0.01,-0.00,1.00,2.44,-4.88,-5.31
1777399402936,2030359,0.01,-0.01,1.00,2.26,-4.76,-5.68
1777399402936,2030369,0.01,-0.01,1.00,2.44,-4.70,-5.49
1777399402936,2030379,0.01,-0.01,1.00,2.50,-4.76,-5.37
1777399402936,2030389,0.01,-0.01,1.00,2.44,-4.70,-5.43
1777399402936,2030399,0.01,-0.01,1.00,2.50,-4.82,-5.43
1777399402936,2030409,0.01,-0.01,1.00,2.56,-4.82,-5.25
1777399402936,2030419,0.01,-0.01,1.00,2.56,-4.82,-5.07
1777399402937,2030429,0.01,-0.01,1.00,2.56,-4.76,-5.19
1777399402937,2030449,0.01,-0.01,1.00,2.44,-4.76,-5.31
1777399402937,2030469,0.02,-0.01,1.00,2.32,-4.82,-5.62
1777399402937,2030489,0.01,-0.01,1.00,2.44,-4.82,-5.31
1777399402937,2030509,0.01,-0.01,1.00,2.62,-4.88,-5.13
1777399402937,2030519,0.01,-0.01,1.00,2.50,-4.82,-5.43
1777399402937,2030529,0.01,-0.01,1.00,2.38,-4.76,-5.62
1777399402937,2030539,0.01,-0.00,1.00,2.44,-4.76,-5.62
1777399402938,2030549,0.01,-0.01,1.00,2.44,-4.82,-5.37
1777399402938,2030559,0.01,-0.01,1.00,2.50,-4.82,-5.37
1777399402938,2030569,0.01,-0.01,1.00,2.56,-4.76,-5.13
1777399402938,2030579,0.01,-0.01,1.00,2.50,-4.76,-5.00
1777399402938,2030589,0.01,-0.01,1.00,2.56,-4.88,-4.94
1777399402938,2030599,0.01,-0.00,1.00,2.50,-4.76,-5.37
1777399402938,2030609,0.01,-0.01,1.00,2.32,-4.82,-5.80
1777399402938,2030619,0.01,-0.01,1.00,2.32,-4.82,-5.55
1777399402939,2030629,0.01,-0.01,1.00,2.50,-4.76,-5.37
1777399402939,2030639,0.01,-0.01,1.00,2.44,-4.76,-5.37
1777399402939,2030649,0.01,-0.01,1.00,2.38,-4.76,-5.55
1777399402939,2030659,0.01,-0.01,1.00,2.38,-4.70,-5.49
1777399402939,2030669,0.01,-0.01,1.00,2.38,-4.70,-5.68
1777399402939,2030679,0.01,-0.01,1.00,2.44,-4.70,-5.43
1777399402939,2030689,0.01,-0.00,1.00,2.62,-4.88,-5.07
1777399402939,2030699,0.01,-0.01,1.00,2.50,-4.76,-5.37
1777399402939,2030709,0.01,-0.01,1.00,2.32,-4.76,-5.86
1777399402940,2030719,0.02,-0.01,1.00,2.32,-4.82,-5.80
1777399402940,2030729,0.01,-0.01,1.00,2.32,-4.76,-5.74
1777399402940,2030739,0.01,-0.01,1.00,2.38,-4.82,-5.49
1777399402940,2030749,0.01,-0.01,1.00,2.56,-4.88,-5.19
1777399402940,2030759,0.01,-0.01,1.00,2.38,-4.88,-5.43
1777399402940,2030769,0.01,-0.00,1.00,2.32,-4.88,-5.80
1777399402940,2030789,0.01,-0.01,1.00,2.50,-4.82,-5.19
1777399402940,2030809,0.01,-0.00,1.00,2.44,-4.76,-5.49
1777399402941,2030829,0.01,-0.01,1.00,2.44,-4.76,-5.37
1777399402941,2030849,0.01,-0.01,1.00,2.56,-4.82,-5.19
1777399402941,2030859,0.01,-0.00,1.00,2.50,-4.88,-5.37
1777399402941,2030869,0.01,-0.01,1.00,2.44,-4.82,-5.37
1777399402941,2030879,0.02,-0.01,1.00,2.32,-4.82,-5.49
1777399402941,2030889,0.01,-0.01,1.00,2.32,-4.88,-5.55
1777399402941,2030899,0.01,-0.01,1.00,2.38,-4.82,-5.62
1777399402941,2030909,0.01,-0.01,1.00,2.50,-4.82,-5.31
1777399402941,2030919,0.01,-0.01,1.00,2.69,-4.88,-5.00
1777399402942,2030929,0.01,-0.01,1.00,2.56,-4.82,-5.31
1777399402942,2030939,0.01,-0.01,1.00,2.44,-4.70,-5.49
1777399402942,2030949,0.01,-0.01,1.00,2.44,-4.76,-5.49
1777399402942,2030959,0.01,-0.01,1.00,2.50,-4.76,-5.31
1777399402942,2030969,0.01,-0.01,1.00,2.38,-4.76,-5.49
1777399402942,2030979,0.02,-0.00,1.00,2.38,-4.70,-5.74
1777399402942,2030989,0.02,-0.01,1.00,2.32,-4.76,-5.74
1777399402942,2030999,0.01,-0.01,1.00,2.38,-4.82,-5.68
1777399402942,2031009,0.01,-0.01,1.00,2.50,-4.82,-5.43
1777399402943,2031019,0.01,-0.01,1.00,2.62,-4.82,-5.13
1777399402943,2031029,0.01,-0.01,1.00,2.50,-4.76,-5.49
1777399402943,2031039,0.02,-0.00,1.00,2.38,-4.82,-5.80
1777399402943,2031049,0.01,-0.01,1.00,2.50,-4.70,-5.49
1777399402943,2031059,0.01,-0.01,1.00,2.69,-4.76,-5.19
1777399402943,2031069,0.01,-0.01,1.00,2.75,-4.82,-5.25
1777399402943,2031079,0.01,-0.01,1.00,2.75,-4.88,-5.25
1777399402943,2031089,0.01,-0.01,1.00,2.69,-4.88,-5.31
1777399402943,2031099,0.01,-0.00,1.00,2.75,-4.76,-5.43
1777399402944,2031109,0.01,-0.01,1.00,2.69,-4.88,-5.43
1777399402944,2031119,0.01,-0.01,1.00,2.56,-4.82,-5.68
1777399402944,2031139,0.01,-0.00,1.00,2.62,-4.70,-5.62
1777399402944,2031159,0.01,-0.01,1.01,2.75,-4.70,-5.55
1777399402944,2031179,0.01,-0.01,0.99,2.75,-4.82,-5.62
1777399402944,2031199,0.01,-0.01,1.00,2.75,-5.00,-5.37
1777399402944,2031209,0.02,-0.00,1.00,2.69,-5.07,-5.37
1777399402944,2031219,0.01,-0.00,0.99,2.75,-4.88,-5.25
1777399402944,2031229,0.01,-0.00,1.00,2.87,-4.76,-5.31
1777399402945,2031239,0.01,0.00,1.00,2.93,-4.76,-5.43
1777399402945,2031249,0.02,-0.00,0.99,2.26,-5.00,-5.43
1777399402945,2031259,0.01,-0.01,1.00,2.44,-4.94,-5.49
1777399402945,2031269,0.02,-0.00,0.99,2.38,-5.07,-5.49
1777399402945,2031279,0.01,-0.01,1.00,2.14,-5.07,-5.68
1777399402945,2031289,0.02,-0.01,1.00,2.20,-5.00,-5.74
1777399402945,2031299,0.01,-0.00,0.99,2.62,-4.76,-5.43
1777399402945,2031309,0.01,-0.00,1.00,2.75,-4.76,-5.07
1777399402945,2031319,0.01,-0.01,1.00,2.75,-4.76,-5.07
1777399402945,2031329,0.01,-0.01,1.00,2.62,-4.76,-5.13
1777399402946,2031339,0.01,-0.01,1.00,2.50,-4.94,-5.19
1777399402946,2031349,0.01,-0.01,0.99,2.56,-5.00,-5.07
1777399402946,2031359,0.01,-0.00,1.00,2.44,-4.88,-5.37
1777399402946,2031369,0.02,-0.00,1.00,2.26,-4.76,-5.80
1777399402946,2031379,0.01,-0.01,1.00,2.32,-4.64,-5.86
1777399402946,2031389,0.01,-0.01,1.01,2.38,-4.64,-5.92
1777399402947,2031399,0.01,-0.00,1.00,2.32,-4.76,-5.86
1777399402947,2031409,0.01,-0.00,1.00,2.20,-4.82,-5.92
1777399402947,2031419,0.01,-0.00,1.00,2.26,-4.82,-5.80
1777399402947,2031429,0.01,-0.01,1.00,2.38,-4.82,-5.49
1777399402947,2031439,0.02,-0.01,0.95,2.26,-5.00,-5.55
1777399402947,2031449,0.01,-0.01,1.03,2.44,-4.64,-5.62
1777399402947,2031459,0.29,0.25,0.97,2.50,-4.94,-10.50
1777399402947,2031469,0.48,0.50,1.00,3.05,-4.27,-98.21
1777399402947,2031489,0.29,0.41,1.00,5.31,-2.38,-173.89
1777399402948,2031509,-0.14,-0.60,1.07,15.69,14.59,-148.99
1777399402948,2031529,0.09,-0.05,0.94,-14.59,32.04,-157.10
1777399402948,2031539,-0.02,0.17,0.90,-1.95,20.87,-160.34
1777399402948,2031549,-0.09,0.10,1.02,20.26,26.55,-139.65
1777399402948,2031559,-0.19,0.13,1.06,18.98,27.95,-128.17
1777399402948,2031569,-0.12,0.19,0.98,0.98,19.23,-109.92
1777399402948,2031579,0.00,0.21,0.99,-5.55,13.79,-82.64
1777399402948,2031589,0.11,0.19,1.01,-1.65,11.05,-71.23
1777399402949,2031599,0.11,0.21,1.00,6.29,13.55,-68.30
1777399402949,2031609,0.04,0.14,1.05,5.62,19.41,-59.69
1777399402949,2031619,-0.23,-0.42,1.08,-8.91,26.92,-54.44
1777399402949,2031629,-0.38,-0.39,1.26,-43.27,50.72,-83.01
1777399402949,2031639,0.22,-0.15,1.33,-102.23,79.90,-105.16
1777399402949,2031649,0.07,-0.22,1.31,-168.15,113.34,-89.84
1777399402949,2031659,-0.14,-0.30,1.53,-220.76,143.55,-73.91
1777399402949,2031669,0.01,-0.39,1.69,-245.85,132.93,-79.71
1777399402950,2031679,0.08,-0.23,1.36,-205.99,101.99,-99.18
1777399402950,2031689,-0.11,-0.21,0.76,-148.25,102.78,-116.03
1777399402950,2031699,-0.21,0.02,0.29,-93.99,145.63,-107.85
1777399402950,2031709,-0.35,-0.13,1.32,-44.98,183.35,-88.32
1777399402950,2031719,-0.47,-0.23,0.76,-80.14,140.62,-83.56
1777399402950,2031729,-0.46,-0.39,0.97,-99.91,122.80,-51.76
1777399402950,2031739,-0.28,-0.57,0.95,-101.07,104.37,-32.10
1777399402950,2031749,-0.45,-0.60,0.99,-90.58,91.98,-42.18
1777399402951,2031759,-0.27,-0.41,0.98,-78.92,70.07,-54.75
1777399402951,2031769,-0.26,-0.23,1.02,-76.60,51.21,-50.48
1777399402951,2031779,-0.42,-0.10,0.98,-75.68,47.91,-29.66
1777399402951,2031789,-0.47,0.04,0.92,-79.47,37.05,-18.43
1777399402951,2031799,-0.50,-0.18,0.90,-76.48,25.33,-16.54
1777399402951,2031809,-0.41,-0.55,0.91,-46.02,38.27,80.57
1777399402951,2031829,-0.31,-0.49,0.69,75.07,120.18,139.53
1777399402951,2031849,-0.44,-0.38,0.77,94.12,83.31,112.24
1777399402951,2031869,-0.50,-0.30,0.57,80.57,42.05,72.63
1777399402952,2031889,-0.58,-0.28,0.67,7.02,30.09,24.54
1777399402952,2031899,-0.57,-0.29,0.71,-12.82,35.16,9.52
1777399402952,2031909,-0.56,-0.26,0.68,-27.16,43.33,-2.44
1777399402952,2031919,-0.52,-0.24,0.67,-43.27,52.86,-10.13
1777399402952,2031929,-0.47,-0.20,0.60,-54.02,60.73,-14.22
1777399402952,2031939,-0.44,-0.19,0.51,-57.62,66.10,-13.85
1777399402952,2031949,-0.42,-0.22,0.49,-57.98,64.88,-12.02
1777399402952,2031959,-0.43,-0.24,0.49,-51.70,53.34,-12.02
1777399402952,2031969,-0.37,-0.11,0.43,-42.05,34.24,-10.68
1777399402953,2031979,-0.16,-0.47,0.68,-89.17,71.84,-9.28
1777399402953,2031989,-0.93,-0.38,0.66,-87.28,197.33,-22.83
1777399402953,2031999,-0.65,-0.30,0.72,-43.82,208.19,-16.91
1777399402953,2032009,-0.63,-0.33,0.79,-60.18,205.08,-31.56
1777399402953,2032019,-0.82,-0.49,0.76,-70.07,168.58,-19.71
1777399402953,2032029,-0.85,-0.61,0.73,-54.14,118.35,14.47
1777399402953,2032039,-0.83,-0.44,0.68,-23.25,73.06,33.33
1777399402953,2032049,-0.88,-0.23,0.60,-3.72,41.99,33.02
1777399402953,2032059,-0.84,-0.16,0.52,4.15,27.95,31.19
1777399402954,2032069,-0.83,-0.23,0.48,10.25,25.51,35.83
1777399402954,2032079,-0.80,-0.27,0.48,10.86,24.48,41.81
1777399402954,2032089,-0.80,-0.39,0.32,-10.07,19.65,42.54
1777399402954,2032099,-0.72,-0.44,0.43,-62.01,18.49,28.56
1777399402954,2032109,-0.85,-0.55,0.31,-96.44,19.29,12.21
1777399402954,2032119,-0.92,-0.42,0.16,-52.19,23.13,0.06
1777399402954,2032129,-0.94,-0.65,0.36,-25.57,30.94,-8.12
1777399402954,2032139,-0.93,-0.74,0.64,-17.33,30.27,-22.09
1777399402954,2032149,-0.94,-0.54,0.70,-5.25,11.17,-39.00
1777399402955,2032159,-0.95,-0.18,0.82,-8.97,-31.62,-45.90
1777399402955,2032179,-0.94,-0.15,0.23,-24.48,-29.48,-25.39
1777399402955,2032199,-0.80,-0.23,0.80,-24.66,-1.65,-30.46
1777399402955,2032219,-0.64,-0.46,0.49,-35.52,-21.24,-8.67
1777399402955,2032229,-0.56,-0.11,0.66,-24.96,-13.37,-1.34
1777399402955,2032239,-0.96,-0.09,0.53,-27.34,-21.12,17.70
1777399402955,2032249,-0.75,-0.27,0.39,-65.73,-14.10,21.00
1777399402955,2032259,-0.68,-0.54,0.54,-110.23,4.33,24.29
1777399402956,2032269,-0.66,-0.73,0.42,-106.32,-4.15,10.38
1777399402956,2032279,-0.61,-0.70,0.38,-79.53,-5.31,-5.31
1777399402956,2032289,-0.56,-0.57,0.27,-46.63,1.10,-16.54
1777399402956,2032299,-0.58,-0.49,0.31,-24.23,15.69,-20.45
1777399402956,2032309,-0.61,-0.44,0.41,-14.77,27.34,-20.81
1777399402956,2032319,-0.65,-0.44,0.46,-15.81,28.99,-19.10
1777399402956,2032329,-0.64,-0.40,0.48,-24.54,24.66,-16.54
1777399402956,2032339,-0.64,-0.40,0.51,-43.76,22.40,-12.15
1777399402956,2032349,-0.70,-0.53,0.53,-64.21,22.28,-6.77
1777399402957,2032359,-0.69,-0.55,0.39,-66.65,16.78,-3.11
1777399402957,2032369,-0.72,-0.48,0.35,-64.94,14.22,-4.52
1777399402957,2032379,-0.74,-0.48,0.27,-62.74,14.28,-5.80
1777399402957,2032389,-0.77,-0.51,0.22,-56.15,17.70,-10.31
1777399402957,2032399,-0.76,-0.54,0.19,-42.66,23.32,-16.78
1777399402957,2032409,-0.76,-0.56,0.18,-25.51,29.79,-20.39
1777399402957,2032419,-0.77,-0.57,0.20,-9.46,35.34,-21.18
1777399402957,2032429,-0.79,-0.53,0.24,0.67,36.93,-21.12
1777399402957,2032439,-0.82,-0.52,0.27,2.81,33.02,-20.32
1777399402958,2032449,-0.84,-0.51,0.28,-1.16,24.66,-20.32
1777399402958,2032459,-0.84,-0.53,0.26,-7.45,14.34,-21.55
1777399402958,2032469,-0.84,-0.55,0.24,-11.41,5.80,-22.22
1777399402958,2032479,-0.80,-0.54,0.22,-12.57,1.40,-23.86
1777399402958,2032489,-0.79,-0.55,0.20,-14.10,0.79,-25.27
1777399402958,2032499,-0.77,-0.56,0.18,-14.77,4.15,-25.88
1777399402958,2032519,-0.74,-0.58,0.20,-3.66,19.59,-25.27
1777399402958,2032539,-0.72,-0.58,0.25,-0.85,17.76,-21.00
1777399402958,2032559,-0.74,-0.57,0.24,-3.54,8.06,-18.01
1777399402959,2032579,-0.75,-0.55,0.20,-4.64,8.30,-20.02
1777399402959,2032589,-0.72,-0.53,0.19,-4.82,14.65,-20.94
1777399402959,2032599,-0.71,-0.53,0.19,-8.48,22.95,-19.41
1777399402959,2032609,-0.71,-0.56,0.20,-12.63,31.19,-15.81
1777399402959,2032619,-0.73,-0.58,0.21,-14.22,37.29,-12.82
1777399402959,2032629,-0.73,-0.57,0.21,-13.49,40.71,-12.02
1777399402959,2032639,-0.74,-0.59,0.21,-10.31,41.63,-11.11
1777399402959,2032649,-0.75,-0.58,0.23,-5.07,41.56,-10.74
1777399402959,2032659,-0.74,-0.58,0.23,0.31,38.70,-10.01
1777399402960,2032669,-0.73,-0.60,0.21,4.15,32.90,-9.09
1777399402960,2032679,-0.74,-0.62,0.19,8.06,27.53,-9.22
1777399402960,2032689,-0.75,-0.60,0.19,13.31,24.35,-9.52
1777399402960,2032699,-0.75,-0.58,0.19,16.78,22.95,-9.64
1777399402960,2032709,-0.73,-0.56,0.19,15.14,21.55,-9.28
1777399402960,2032719,-0.75,-0.57,0.22,7.93,18.25,-9.64
1777399402960,2032729,-0.69,-0.60,0.18,6.16,19.96,-5.00
1777399402960,2032739,-0.73,-0.60,0.23,-4.82,13.06,-7.51
1777399402961,2032749,-0.68,-0.66,0.17,-5.37,11.41,-6.29
1777399402961,2032759,-0.63,-0.67,0.19,-2.01,14.04,-3.85
1777399402961,2032769,-0.67,-0.65,0.22,-1.53,11.72,-4.64
1777399402961,2032779,-0.60,-0.68,0.16,5.92,11.72,-1.89
1777399402961,2032789,-0.63,-0.68,0.20,11.96,11.17,-2.75
1777399402961,2032799,-0.64,-0.67,0.22,18.92,12.51,-2.32
1777399402961,2032809,-0.65,-0.65,0.24,23.25,12.39,-2.32
1777399402961,2032819,-0.69,-0.62,0.27,21.30,8.73,-1.83
1777399402961,2032829,-0.66,-0.64,0.26,17.94,5.98,2.32
1777399402962,2032839,-0.70,-0.61,0.27,11.05,0.37,2.69
1777399402962,2032849,-0.68,-0.62,0.24,6.41,-5.07,8.54
1777399402962,2032869,-0.67,-0.66,0.23,3.05,-10.31,11.66
1777399402962,2032889,-0.70,-0.62,0.21,6.29,-4.39,10.01
1777399402962,2032909,-0.75,-0.63,0.24,9.58,1.40,11.05
1777399402962,2032929,-0.80,-0.56,0.23,6.71,1.83,5.13
1777399402962,2032939,-0.80,-0.58,0.22,3.48,0.73,1.83
1777399402962,2032949,-0.80,-0.58,0.19,1.16,-0.85,-1.89
1777399402962,2032959,-0.77,-0.58,0.18,0.31,-0.37,-3.60
1777399402963,2032969,-0.77,-0.58,0.16,1.16,0.31,-3.42
1777399402963,2032979,-0.78,-0.57,0.16,3.60,1.83,-2.56
1777399402963,2032989,-0.77,-0.55,0.17,5.74,3.17,-1.40
1777399402963,2032999,-0.77,-0.54,0.17,6.29,2.75,0.31
1777399402963,2033009,-0.77,-0.54,0.17,6.47,1.53,2.75
1777399402963,2033019,-0.79,-0.53,0.17,6.35,0.18,3.54
1777399402963,2033029,-0.79,-0.52,0.16,5.13,-0.98,1.59
1777399402963,2033039,-0.79,-0.53,0.15,4.15,-1.71,0.31
1777399402963,2033049,-0.79,-0.53,0.14,4.94,-1.40,0.92
1777399402963,2033059,-0.81,-0.53,0.14,7.08,0.31,1.65
1777399402964,2033069,-0.81,-0.52,0.14,9.03,3.23,0.49
1777399402964,2033079,-0.81,-0.52,0.15,8.61,5.25,-0.98
1777399402964,2033089,-0.81,-0.53,0.14,7.32,6.29,-1.10
1777399402964,2033099,-0.80,-0.54,0.14,7.26,7.51,0.24
1777399402964,2033109,-0.80,-0.53,0.14,7.08,8.67,1.46
1777399402964,2033119,-0.80,-0.54,0.14,4.58,8.24,1.83
1777399402964,2033129,-0.80,-0.56,0.15,1.95,5.68,2.62
1777399402964,2033139,-0.81,-0.56,0.14,1.04,1.77,4.46
1777399402964,2033149,-0.81,-0.56,0.14,1.04,-3.11,6.04
1777399402964,2033159,-0.81,-0.57,0.15,0.73,-8.18,6.77
1777399402964,2033169,-0.81,-0.59,0.15,1.04,-13.43,6.96
1777399402965,2033179,-0.79,-0.60,0.15,3.42,-16.97,6.96
1777399402965,2033189,-0.79,-0.58,0.17,6.71,-19.10,6.53
1777399402965,2033209,-0.77,-0.56,0.22,10.62,-26.92,9.52
1777399402965,2033229,-0.78,-0.56,0.29,10.93,-33.39,9.58
1777399402965,2033249,-0.79,-0.56,0.30,6.65,-39.67,9.46
1777399402965,2033269,-0.80,-0.52,0.30,1.65,-39.12,7.14
1777399402965,2033279,-0.81,-0.51,0.29,-3.11,-36.62,7.51
1777399402965,2033289,-0.81,-0.52,0.28,-8.85,-32.10,7.08
1777399402965,2033299,-0.81,-0.53,0.26,-13.73,-26.25,5.31
1777399402965,2033309,-0.83,-0.52,0.27,-16.60,-19.59,3.05
1777399402966,2033319,-0.83,-0.51,0.26,-16.91,-14.47,1.16
1777399402966,2033329,-0.83,-0.49,0.27,-17.15,-11.60,-0.37
1777399402966,2033339,-0.83,-0.50,0.26,-18.37,-11.41,-1.16
1777399402966,2033349,-0.84,-0.49,0.25,-19.23,-12.57,-2.08
1777399402966,2033359,-0.85,-0.48,0.24,-19.17,-14.10,-2.93
1777399402966,2033369,-0.86,-0.51,0.23,-18.07,-15.01,-2.93
1777399402966,2033379,-0.88,-0.49,0.22,-15.44,-14.34,-4.88
1777399402966,2033389,-0.87,-0.47,0.23,-11.84,-13.24,-6.47
1777399402966,2033399,-0.88,-0.45,0.24,-9.83,-12.39,-6.53
1777399402967,2033409,-0.88,-0.45,0.24,-10.07,-12.70,-6.16
1777399402967,2033419,-0.89,-0.46,0.26,-12.15,-14.10,-6.65
1777399402967,2033429,-0.90,-0.46,0.24,-13.49,-15.93,-8.67
1777399402967,2033439,-0.90,-0.45,0.21,-13.06,-15.93,-10.80
1777399402967,2033449,-0.90,-0.44,0.21,-11.90,-13.67,-11.96
1777399402967,2033459,-0.90,-0.43,0.20,-10.74,-10.38,-12.27
1777399402967,2033469,-0.91,-0.44,0.20,-11.11,-6.10,-12.27
1777399402967,2033479,-0.91,-0.44,0.19,-12.02,-2.81,-14.65
1777399402968,2033489,-0.92,-0.43,0.19,-11.29,0.31,-18.37
1777399402968,2033499,-0.90,-0.42,0.19,-9.95,2.87,-21.18
1777399402968,2033509,-0.90,-0.42,0.19,-10.44,3.36,-22.46
1777399402968,2033519,-0.90,-0.43,0.18,-10.99,2.62,-22.16
1777399402968,2033529,-0.90,-0.43,0.17,-10.86,1.53,-21.67
1777399402968,2033539,-0.90,-0.43,0.14,-10.50,0.92,-22.09
1777399402968,2033559,-0.89,-0.44,0.13,-7.02,2.62,-23.74
1777399402968,2033579,-0.87,-0.46,0.14,-1.10,4.15,-27.34
1777399402969,2033599,-0.85,-0.46,0.18,6.65,-0.85,-26.79
1777399402969,2033619,-0.83,-0.49,0.19,8.36,-12.88,-23.93
1777399402969,2033629,-0.81,-0.51,0.19,8.06,-17.64,-23.07
1777399402969,2033639,-0.79,-0.53,0.19,8.48,-20.14,-22.83
1777399402969,2033649,-0.76,-0.53,0.18,8.54,-20.32,-22.95
1777399402969,2033659,-0.72,-0.55,0.17,8.73,-18.31,-21.79
1777399402969,2033669,-0.69,-0.57,0.16,9.70,-14.47,-20.20
1777399402969,2033679,-0.69,-0.57,0.17,11.41,-9.89,-18.19
1777399402969,2033689,-0.69,-0.59,0.19,13.61,-5.86,-15.26
1777399402969,2033699,-0.67,-0.60,0.19,15.01,-3.11,-13.24
1777399402970,2033709,-0.66,-0.63,0.23,14.77,-0.92,-13.85
1777399402970,2033719,-0.69,-0.55,0.27,15.81,-0.92,-12.51
1777399402970,2033729,-0.66,-0.62,0.22,13.85,-3.23,-7.32
1777399402970,2033739,-0.67,-0.60,0.22,10.25,-4.94,-8.24
1777399402970,2033749,-0.64,-0.62,0.21,8.91,-5.68,-6.35
1777399402970,2033759,-0.65,-0.63,0.19,10.19,-5.98,-5.13
1777399402970,2033769,-0.65,-0.63,0.20,11.66,-4.76,-3.42
1777399402970,2033779,-0.65,-0.61,0.21,12.88,-4.03,-1.46
1777399402970,2033789,-0.66,-0.60,0.23,12.63,-4.33,1.40
1777399402970,2033799,-0.66,-0.60,0.23,11.54,-6.23,5.43
1777399402971,2033809,-0.67,-0.60,0.24,9.52,-8.06,8.73
1777399402971,2033819,-0.70,-0.62,0.24,7.20,-10.50,10.93
1777399402971,2033829,-0.72,-0.63,0.22,6.04,-12.02,11.05
1777399402971,2033839,-0.73,-0.61,0.22,5.68,-11.23,9.22
1777399402971,2033849,-0.74,-0.58,0.22,5.55,-8.97,8.00
1777399402971,2033859,-0.77,-0.58,0.24,4.88,-6.96,8.67
1777399402971,2033869,-0.78,-0.59,0.25,3.48,-6.65,9.40
1777399402971,2033879,-0.79,-0.60,0.23,0.98,-7.75,8.91
1777399402971,2033899,-0.81,-0.59,0.23,-1.65,-6.29,7.14
1777399402971,2033919,-0.82,-0.54,0.22,-1.28,-2.99,7.02
1777399402972,2033939,-0.83,-0.55,0.21,-3.42,-3.54,4.39
1777399402972,2033959,-0.82,-0.56,0.17,-3.72,-4.39,-0.06
1777399402972,2033969,-0.83,-0.55,0.17,-2.08,-3.42,-2.44
1777399402972,2033979,-0.84,-0.52,0.17,0.49,-2.69,-3.91
1777399402972,2033989,-0.84,-0.51,0.20,2.50,-2.99,-3.23
1777399402972,2033999,-0.84,-0.53,0.18,2.44,-5.62,-2.99
1777399402972,2034009,-0.85,-0.53,0.19,0.67,-7.51,-3.85
1777399402972,2034019,-0.85,-0.54,0.19,0.92,-9.58,-4.70
1777399402972,2034029,-0.84,-0.53,0.18,3.05,-11.84,-6.16
1777399402973,2034039,-0.83,-0.52,0.18,4.88,-12.15,-7.57
1777399402973,2034049,-0.82,-0.50,0.18,6.59,-11.05,-7.75
1777399402973,2034059,-0.81,-0.50,0.20,7.39,-9.58,-7.08
1777399402973,2034069,-0.80,-0.52,0.20,6.96,-8.54,-6.23
1777399402973,2034079,-0.79,-0.52,0.19,5.80,-7.57,-7.14
1777399402973,2034089,-0.78,-0.51,0.19,4.82,-5.92,-8.61
1777399402973,2034099,-0.78,-0.49,0.18,5.00,-4.27,-7.87
1777399402973,2034109,-0.78,-0.53,0.18,5.86,-2.62,-5.43
1777399402973,2034119,-0.77,-0.56,0.17,6.90,-1.40,-6.04
1777399402974,2034129,-0.77,-0.53,0.16,8.54,-0.12,-8.85
1777399402974,2034139,-0.77,-0.49,0.19,10.74,1.16,-8.73
1777399402974,2034149,-0.76,-0.48,0.22,12.02,-0.24,-5.19
1777399402974,2034159,-0.76,-0.50,0.20,10.80,-5.43,-2.01
1777399402974,2034169,-0.76,-0.53,0.19,8.18,-10.38,-1.40
1777399402974,2034179,-0.77,-0.53,0.19,8.48,-13.61,-1.46
1777399402974,2034189,-0.78,-0.52,0.20,12.33,-16.05,-1.34
1777399402974,2034199,-0.78,-0.50,0.20,16.11,-17.46,-1.16
1777399402974,2034209,-0.78,-0.53,0.23,17.58,-17.82,-0.61
1777399402974,2034219,-0.80,-0.50,0.24,17.76,-18.98,-1.46
1777399402975,2034229,-0.78,-0.51,0.28,18.01,-20.26,-0.43
1777399402975,2034249,-0.76,-0.56,0.24,20.75,-30.21,-3.36
1777399402975,2034269,-0.77,-0.49,0.23,30.52,-28.26,-4.82
1777399402975,2034289,-0.81,-0.48,0.30,37.11,-28.02,2.87
1777399402975,2034309,-0.82,-0.49,0.36,34.79,-35.58,3.54
1777399402975,2034319,-0.80,-0.48,0.36,29.97,-39.43,1.71
1777399402975,2034329,-0.78,-0.48,0.35,23.74,-41.50,0.55
1777399402975,2034339,-0.75,-0.50,0.33,18.68,-41.63,0.31
1777399402975,2034349,-0.71,-0.53,0.29,17.03,-40.28,0.18
1777399402976,2034359,-0.68,-0.53,0.25,20.02,-36.50,-0.98
1777399402976,2034369,-0.66,-0.50,0.22,24.41,-30.33,-1.89
1777399402976,2034379,-0.67,-0.49,0.23,27.34,-23.25,-1.53
1777399402976,2034389,-0.71,-0.49,0.27,29.85,-17.64,0.61
1777399402976,2034399,-0.74,-0.49,0.34,34.42,-16.66,4.94
1777399402976,2034409,-0.77,-0.51,0.38,39.61,-21.67,8.67
1777399402976,2034419,-0.79,-0.49,0.40,42.60,-30.09,9.83
1777399402976,2034429,-0.79,-0.47,0.43,41.93,-39.06,10.50
1777399402976,2034439,-0.77,-0.47,0.44,38.15,-47.79,11.29
1777399402976,2034449,-0.76,-0.49,0.42,33.39,-55.60,10.93
1777399402977,2034459,-0.74,-0.49,0.43,29.30,-60.12,10.99
1777399402977,2034469,-0.72,-0.49,0.43,27.47,-61.77,11.47
1777399402977,2034479,-0.71,-0.47,0.42,26.49,-61.04,12.21
1777399402977,2034489,-0.73,-0.46,0.45,26.18,-57.25,14.22
1777399402977,2034499,-0.75,-0.46,0.49,28.02,-53.28,17.27
1777399402977,2034509,-0.76,-0.45,0.52,30.40,-50.60,19.59
1777399402977,2034519,-0.77,-0.44,0.54,31.56,-48.16,19.96
1777399402977,2034529,-0.79,-0.44,0.57,31.56,-45.10,18.37
1777399402977,2034539,-0.80,-0.43,0.60,31.07,-42.36,15.08
1777399402978,2034549,-0.79,-0.42,0.61,29.36,-41.32,9.34
1777399402978,2034559,-0.77,-0.40,0.60,25.51,-41.08,4.03
1777399402978,2034569,-0.76,-0.39,0.61,21.55,-39.61,2.56
1777399402978,2034589,-0.72,-0.38,0.59,15.32,-30.27,5.43
1777399402978,2034609,-0.69,-0.35,0.54,12.27,-19.53,8.48
1777399402978,2034629,-0.71,-0.37,0.54,12.94,-8.36,8.42
1777399402978,2034649,-0.71,-0.37,0.54,17.76,-4.70,5.98
1777399402978,2034659,-0.72,-0.36,0.54,19.84,-4.09,5.31
1777399402978,2034669,-0.72,-0.36,0.56,21.12,-4.15,5.43
1777399402979,2034679,-0.73,-0.35,0.57,21.79,-6.35,6.23
1777399402979,2034689,-0.73,-0.34,0.56,21.67,-10.13,7.81
1777399402979,2034699,-0.72,-0.35,0.56,20.51,-14.16,9.40
1777399402979,2034709,-0.71,-0.33,0.54,19.04,-17.58,10.38
1777399402979,2034719,-0.70,-0.34,0.53,17.82,-19.53,12.27
1777399402979,2034729,-0.71,-0.34,0.54,18.31,-21.55,14.34
1777399402979,2034739,-0.73,-0.33,0.57,20.45,-24.54,15.50
1777399402979,2034749,-0.85,-0.23,0.66,22.71,-29.24,15.87
1777399402979,2034759,-0.76,-0.33,0.64,25.45,-40.16,15.50
1777399402980,2034769,-0.77,-0.29,0.56,25.27,-48.71,9.58
1777399402980,2034779,-0.73,-0.31,0.60,19.41,-47.42,7.26
1777399402980,2034789,-0.72,-0.34,0.60,17.40,-43.95,4.64
1777399402980,2034799,-0.71,-0.33,0.61,19.35,-39.25,2.87
1777399402980,2034809,-0.71,-0.33,0.63,21.79,-34.55,2.14
1777399402980,2034819,-0.72,-0.32,0.66,21.91,-31.19,1.16
1777399402980,2034829,-0.72,-0.31,0.67,19.78,-30.03,0.37
1777399402980,2034839,-0.70,-0.31,0.65,15.44,-30.52,-0.98
1777399402980,2034849,-0.69,-0.32,0.66,11.78,-31.74,-1.10
1777399402980,2034859,-0.69,-0.35,0.65,11.90,-33.51,0.31
1777399402981,2034869,-0.69,-0.33,0.64,14.47,-34.73,1.28
1777399402981,2034879,-0.66,-0.34,0.64,16.30,-34.24,1.95
1777399402981,2034889,-0.67,-0.34,0.64,16.97,-32.59,1.16
1777399402981,2034899,-0.67,-0.34,0.63,17.88,-30.70,0.67
1777399402981,2034909,-0.67,-0.30,0.79,21.48,-29.36,0.98
1777399402981,2034919,-0.66,-0.29,0.61,32.71,-34.12,6.23
1777399402981,2034939,-0.65,-0.33,0.55,27.71,-24.60,5.86
1777399402981,2034959,-0.69,-0.26,0.71,33.87,-35.10,10.25
1777399402981,2034979,-0.73,-0.25,0.78,35.46,-49.93,14.40
1777399402981,2034999,-0.67,-0.28,0.82,41.20,-58.65,12.63
1777399402982,2035009,-0.50,-0.16,0.79,49.87,-56.82,11.47
1777399402982,2035019,-0.70,-0.22,0.85,58.04,-49.68,15.32
1777399402982,2035029,-0.88,-0.19,0.79,62.19,-47.73,12.02
1777399402982,2035039,-0.65,-0.20,0.87,56.46,-52.86,6.71
1777399402982,2035049,-0.53,-0.19,0.81,71.90,-45.96,2.75
1777399402982,2035059,-0.46,-0.13,0.73,78.67,-44.56,1.40
1777399402982,2035069,-0.61,-0.15,0.77,70.98,-43.95,2.75
1777399402982,2035079,-0.66,-0.10,0.74,60.30,-47.24,-0.37
1777399402982,2035089,-0.58,-0.05,0.73,47.49,-45.72,2.69
1777399402982,2035099,-0.55,-0.04,0.78,35.40,-43.03,6.77
1777399402983,2035109,-0.54,-0.03,0.79,24.35,-41.44,9.95
1777399402983,2035119,-0.54,-0.02,0.78,12.94,-36.19,12.02
1777399402983,2035129,-0.54,-0.03,0.80,1.53,-27.53,14.22
1777399402983,2035139,-0.55,-0.04,0.81,-6.84,-20.14,14.95
1777399402983,2035149,-0.58,-0.07,0.77,-9.83,-14.04,13.92
1777399402983,2035159,-0.61,-0.11,0.78,-7.02,-8.12,11.84
1777399402983,2035169,-0.61,-0.10,0.80,-1.77,-3.91,8.00
1777399402983,2035179,-0.60,-0.08,0.79,1.89,-1.10,4.94
1777399402983,2035189,-0.59,-0.12,0.76,3.05,1.28,2.81
1777399402983,2035199,-0.61,-0.12,0.79,2.87,3.36,0.31
1777399402984,2035209,-0.60,-0.12,0.79,3.97,1.89,-0.55
1777399402984,2035219,-0.61,-0.12,0.77,6.10,-1.34,0.00
1777399402984,2035229,-0.59,-0.11,0.75,7.45,-3.30,0.31
1777399402984,2035239,-0.59,-0.11,0.75,7.57,-3.72,0.24
1777399402984,2035249,-0.59,-0.12,0.73,9.58,-3.78,1.16
1777399402984,2035259,-0.59,-0.13,0.73,10.99,-3.54,1.53
1777399402984,2035269,-0.59,-0.16,0.72,12.02,-3.23,-2.75
1777399402984,2035289,-0.58,-0.18,0.74,21.48,-4.88,-6.23
1777399402984,2035309,-0.55,-0.15,0.72,30.40,-9.09,-4.52
1777399402984,2035329,-0.56,-0.17,0.86,32.17,-14.53,0.00
1777399402985,2035339,-0.56,-0.14,0.78,36.32,-23.07,-0.92
1777399402985,2035349,-0.57,-0.12,0.68,43.27,-25.63,-1.22
1777399402985,2035359,-0.58,-0.09,0.72,52.67,-20.14,-0.67
1777399402985,2035369,-0.56,-0.11,0.70,57.19,-15.26,-1.22
1777399402985,2035379,-0.55,-0.09,0.80,63.17,-9.89,-1.34
1777399402985,2035389,-0.52,-0.11,1.07,54.38,-13.31,0.12
1777399402985,2035399,-0.54,-0.10,1.03,40.34,-31.74,0.85
1777399402985,2035409,-0.51,-0.10,0.88,33.14,-51.21,1.59
1777399402985,2035419,-0.46,-0.10,0.67,33.75,-58.29,4.88
1777399402985,2035429,-0.47,-0.08,0.62,50.78,-51.21,12.70
1777399402986,2035439,-0.54,-0.09,0.67,74.77,-39.79,22.46
1777399402986,2035449,-0.66,-0.02,0.80,80.08,-32.96,22.34
1777399402986,2035459,-0.64,0.10,0.93,71.59,-31.13,12.21
1777399402986,2035469,-0.57,0.18,1.16,41.38,-29.66,3.17
1777399402986,2035479,-0.63,0.28,1.06,21.85,-27.53,-0.12
1777399402986,2035489,-0.58,0.14,0.96,14.77,-15.63,8.67
1777399402986,2035499,-0.48,0.06,1.03,2.50,5.13,23.32
1777399402986,2035509,-0.46,-0.04,0.96,2.62,14.40,40.41
1777399402986,2035519,-0.48,-0.14,0.90,10.62,18.98,57.25
1777399402986,2035529,-0.58,-0.19,0.87,19.41,20.20,67.20
1777399402987,2035539,-0.66,-0.21,0.77,26.98,15.69,65.55
1777399402987,2035549,-0.72,-0.19,0.71,31.13,12.51,54.69
1777399402987,2035559,-0.78,-0.09,0.74,31.74,11.90,38.57
1777399402987,2035569,-0.73,-0.03,0.73,24.96,7.51,18.98
1777399402987,2035579,-0.60,-0.02,0.69,14.83,0.79,4.15
1777399402987,2035589,-0.47,-0.03,0.71,6.29,0.06,0.18
1777399402987,2035599,-0.43,0.02,0.82,-0.55,4.58,5.86
1777399402987,2035609,-0.41,0.03,0.89,-2.44,6.16,34.18
1777399402987,2035629,-0.44,0.04,0.95,1.34,3.60,50.78
1777399402988,2035649,-0.56,0.18,0.93,-3.60,1.95,42.60
1777399402988,2035669,-0.49,0.15,0.82,-20.39,-0.61,30.15
1777399402988,2035689,-0.34,0.10,0.68,-15.14,-4.82,41.20
1777399402988,2035699,-0.41,0.17,0.81,-10.50,-1.65,51.64
1777399402988,2035709,-0.53,0.22,0.95,-9.16,-3.97,62.07
1777399402988,2035719,-0.54,0.24,0.93,-10.44,-11.60,67.32
1777399402988,2035729,-0.47,0.22,0.89,-15.01,-15.38,65.67
1777399402988,2035739,-0.42,0.22,0.88,-14.28,-13.79,62.50
1777399402988,2035749,-0.39,0.19,0.91,-8.85,-8.67,58.35
1777399402988,2035759,-0.41,0.20,0.95,-5.86,-3.91,48.65
1777399402989,2035769,-0.41,0.20,0.96,-6.90,-3.11,39.86
1777399402989,2035779,-0.37,0.23,0.92,-8.12,-4.39,34.85
1777399402989,2035789,-0.37,0.30,0.91,-9.64,-4.70,32.78
1777399402989,2035799,-0.38,0.34,0.88,-12.08,-5.49,33.57
1777399402989,2035809,-0.37,0.38,0.84,-15.01,-8.00,35.83
1777399402989,2035819,-0.32,0.36,0.81,-18.49,-8.91,40.34
1777399402989,2035829,-0.29,0.30,0.81,-20.69,-5.92,44.68
1777399402989,2035839,-0.32,0.25,0.88,-22.03,-1.40,46.08
1777399402989,2035849,-0.38,0.23,0.92,-21.67,0.31,44.43
1777399402989,2035859,-0.40,0.17,0.89,-19.90,-1.40,40.53
1777399402990,2035869,-0.48,0.16,0.86,-15.99,-2.08,32.35
1777399402990,2035879,-0.51,0.29,0.83,-12.82,-0.98,19.23
1777399402990,2035889,-0.48,0.29,0.86,-15.87,1.40,9.64
1777399402990,2035899,-0.49,0.30,0.87,-19.23,0.92,4.09
1777399402990,2035909,-0.43,0.30,0.84,-19.47,-2.38,4.88
1777399402990,2035919,-0.40,0.32,0.79,-19.04,-3.48,8.67
1777399402990,2035929,-0.38,0.32,0.81,-17.88,-1.22,14.34
1777399402990,2035939,-0.36,0.27,0.87,-16.54,1.59,22.28
1777399402990,2035949,-0.38,0.24,0.91,-16.30,2.44,27.40
1777399402990,2035959,-0.44,0.22,0.89,-14.34,0.67,27.95
1777399402991,2035979,-0.46,0.32,0.91,-13.79,4.15,17.64
1777399402991,2035999,-0.42,0.28,0.71,-10.56,-5.13,15.63
1777399402991,2036019,-0.46,0.29,0.80,5.43,-1.46,23.25
1777399402991,2036039,-0.47,0.25,0.88,7.81,-2.81,21.30
1777399402991,2036049,-0.44,0.23,0.89,8.54,-3.17,17.70
1777399402991,2036059,-0.40,0.24,0.92,9.58,-1.71,12.70
1777399402991,2036069,-0.41,0.35,0.87,14.04,-3.48,13.98
1777399402991,2036079,-0.78,0.55,0.72,29.48,-4.76,7.93
1777399402991,2036089,-0.85,0.48,0.76,21.36,-0.92,-7.81
1777399402991,2036099,-0.63,0.34,0.79,11.78,-4.09,-14.22
1777399402991,2036109,-0.49,0.31,0.66,17.09,-17.33,-15.26
1777399402992,2036119,-0.39,0.34,0.67,21.18,-22.34,-18.19
1777399402992,2036129,-0.31,0.34,0.83,16.36,-16.54,-19.65
1777399402992,2036139,-0.27,0.33,1.00,3.36,-11.41,-14.95
1777399402992,2036149,-0.32,0.25,1.02,-5.19,-12.08,-4.46
1777399402992,2036159,-0.35,0.15,1.01,-4.52,-8.97,7.51
1777399402992,2036169,-0.36,0.10,1.04,-0.61,-0.49,11.05
1777399402992,2036179,-0.31,0.11,1.01,4.33,4.39,11.47
1777399402992,2036189,-0.32,0.10,0.93,8.97,5.31,13.61
1777399402992,2036199,-0.38,0.11,0.90,9.46,5.68,13.92
1777399402992,2036209,-0.43,0.15,0.86,7.32,2.20,9.77
1777399402993,2036219,-0.45,0.16,0.83,5.31,-0.92,8.42
1777399402993,2036229,-0.49,0.17,0.84,5.00,-1.71,7.93
1777399402993,2036239,-0.48,0.17,0.86,4.52,-1.59,7.57
1777399402993,2036249,-0.45,0.16,0.87,5.49,-2.75,6.96
1777399402993,2036259,-0.43,0.18,0.87,4.27,-4.82,2.75
1777399402993,2036269,-0.39,0.21,0.84,1.71,-7.39,-0.67
1777399402993,2036279,-0.45,0.25,0.82,0.98,-8.61,-2.81
1777399402993,2036289,-0.49,0.23,0.84,1.16,-6.59,-3.78
1777399402993,2036299,-0.50,0.22,0.89,0.73,-4.27,-5.62
1777399402993,2036319,-0.42,0.31,0.81,1.04,-6.41,-2.99
1777399402993,2036339,-0.46,0.34,0.91,1.77,-1.04,0.43
1777399402994,2036359,-0.46,0.31,0.75,-3.30,-7.26,-0.18
1777399402994,2036379,-0.48,0.34,0.87,-2.08,-1.95,-3.54
1777399402994,2036389,-0.46,0.38,0.83,-3.48,-4.58,-4.88
1777399402994,2036399,-0.46,0.38,0.79,-6.41,-5.13,-3.85
1777399402994,2036409,-0.48,0.35,0.81,-8.24,-2.56,-3.36
1777399402994,2036419,-0.45,0.32,0.85,-9.16,-2.14,-6.23
1777399402994,2036429,-0.47,0.33,0.82,-10.56,-4.21,-12.02
1777399402994,2036439,-0.49,0.35,0.81,-12.39,-3.60,-17.82
1777399402994,2036449,-0.46,0.32,0.85,-14.28,-1.10,-23.19
1777399402994,2036459,-0.39,0.27,0.92,-15.14,-0.37,-26.06
1777399402995,2036469,-0.36,0.27,0.97,-13.43,-1.04,-27.40
1777399402995,2036479,-0.34,0.31,1.00,-10.80,0.49,-30.82
1777399402995,2036489,-0.27,0.32,1.07,-11.84,5.00,-34.97
1777399402995,2036499,-0.21,0.34,1.09,-14.71,8.67,-39.98
1777399402995,2036509,-0.22,0.41,1.10,-18.49,13.67,-47.36
1777399402995,2036519,-0.23,0.47,1.15,-24.96,21.24,-54.08
1777399402995,2036529,-0.32,0.50,1.09,-34.79,25.63,-60.91
1777399402995,2036539,-0.42,0.48,0.99,-44.31,29.05,-73.91
1777399402995,2036549,-0.47,0.42,0.96,-46.26,37.29,-88.87
1777399402995,2036559,-0.56,0.43,1.00,-39.98,46.02,-103.33
1777399402996,2036569,-0.61,0.47,1.05,-31.49,51.82,-116.21
1777399402996,2036579,-0.63,0.46,1.04,-26.61,56.70,-127.81
1777399402996,2036589,-0.64,0.45,1.03,-27.28,65.49,-139.22
1777399402996,2036599,-0.62,0.41,1.03,-28.44,77.27,-145.39
1777399402996,2036609,-0.65,0.35,0.97,-21.06,89.60,-148.62
1777399402996,2036619,-0.69,0.37,0.89,-13.61,105.16,-156.25
1777399402996,2036629,-0.68,0.39,0.88,-10.86,120.97,-167.30
1777399402996,2036639,-0.63,0.37,0.83,-1.95,136.05,-170.47
1777399402996,2036649,-0.58,0.36,0.80,-7.63,145.14,-160.77
1777399402997,2036669,-0.45,0.60,1.25,-111.51,137.51,-120.61
1777399402997,2036689,-0.38,-0.15,0.74,-105.53,50.29,-45.84
1777399402997,2036709,-0.42,-0.48,-0.14,-53.04,46.33,-45.04
1777399402997,2036729,-0.51,-0.29,-0.00,-49.26,125.37,-80.99
1777399402997,2036739,-0.58,-0.44,0.25,-42.54,149.11,-90.27
1777399402997,2036749,-0.68,-0.55,0.31,-16.97,142.76,-102.54
1777399402997,2036759,-0.65,-0.51,0.17,2.50,118.96,-119.93
1777399402997,2036769,-0.53,-0.44,0.03,8.06,94.18,-122.13
1777399402997,2036779,-0.53,-0.39,-0.02,4.03,80.26,-113.95
1777399402998,2036789,-0.50,-0.40,-0.00,-2.32,68.97,-100.77
1777399402998,2036799,-0.44,-0.42,-0.01,-8.97,55.18,-81.79
1777399402998,2036809,-0.45,-0.49,-0.07,-13.18,40.59,-61.65
1777399402998,2036819,-0.49,-0.54,-0.13,-8.79,29.97,-48.58
1777399402998,2036829,-0.58,-0.49,-0.18,3.78,26.61,-39.79
1777399402998,2036839,-0.68,-0.53,-0.11,18.07,25.70,-35.28
1777399402998,2036849,-0.74,-0.61,-0.01,29.91,18.49,-34.24
1777399402998,2036859,-0.99,-0.50,0.03,40.65,-1.04,-32.84
1777399402999,2036869,-0.71,-0.64,0.02,49.01,-31.49,-32.23
1777399402999,2036879,-0.78,-0.51,-0.00,50.60,-55.73,-39.18
1777399402999,2036889,-0.70,-0.53,-0.01,46.81,-61.34,-28.81
1777399402999,2036899,-0.74,-0.61,-0.00,39.86,-56.70,-19.96
1777399402999,2036909,-0.86,-0.64,0.04,35.58,-45.90,-19.71
1777399402999,2036919,-0.93,-0.68,0.05,46.33,-35.95,-19.23
1777399402999,2036929,-1.11,-0.66,0.37,55.05,-31.07,-19.10
1777399402999,2036939,-1.13,-0.78,0.44,56.88,-42.48,-17.33
1777399402999,2036949,-1.17,-0.80,0.54,49.32,-65.80,-16.85
1777399403000,2036959,-1.07,-0.75,0.57,43.52,-88.07,-15.75
1777399403000,2036969,-0.97,-0.77,0.59,35.03,-101.81,-9.83
1777399403000,2036979,-0.90,-0.78,0.62,26.86,-98.33,-6.59
1777399403000,2036989,-0.90,-0.81,0.60,17.33,-83.56,-4.33
1777399403000,2037009,-1.06,-0.91,0.73,-1.16,-10.93,-2.50
1777399403000,2037029,-1.18,-1.23,0.81,-39.12,-9.28,7.20
1777399403000,2037049,-1.15,-1.76,0.71,-92.90,-10.62,40.83
1777399403000,2037069,-1.05,-2.56,0.76,-159.42,31.62,110.96
1777399403000,2037079,-1.02,-3.12,0.79,-204.59,83.13,153.63
1777399403001,2037089,-1.07,-3.82,1.01,-238.04,149.11,192.20
1777399403001,2037099,-1.23,-4.00,1.63,-243.10,213.13,218.14
1777399403001,2037109,-1.35,-4.00,2.72,-222.29,252.81,224.85
1777399403001,2037119,-1.30,-4.00,3.93,-207.89,254.64,206.42
1777399403001,2037129,-0.91,-4.00,4.00,-219.30,234.80,164.12
1777399403001,2037139,-0.20,-3.11,4.00,-265.38,225.95,123.78
1777399403001,2037149,0.55,-1.91,4.00,-357.91,247.25,121.34
1777399403001,2037159,1.06,-0.95,4.00,-473.75,300.05,160.10
1777399403001,2037169,1.22,-0.16,4.00,-561.16,372.50,215.82
1777399403002,2037179,1.19,0.58,4.00,-605.71,440.12,263.55
1777399403002,2037189,1.13,1.24,3.93,-624.45,480.29,288.88
1777399403002,2037199,1.01,1.59,3.45,-629.21,481.38,285.40
1777399403002,2037209,0.91,1.66,3.05,-618.71,440.00,251.40
1777399403002,2037219,1.14,1.91,2.59,-586.67,364.75,198.12
1777399403002,2037229,1.60,2.29,1.86,-541.26,292.05,145.32
1777399403002,2037239,1.92,2.59,1.21,-498.29,262.94,110.96
1777399403002,2037249,2.01,2.88,0.58,-457.58,259.83,110.29
1777399403002,2037259,1.88,3.08,-0.04,-412.54,259.52,139.28
1777399403002,2037269,1.49,3.01,-0.42,-362.79,261.84,177.98
1777399403003,2037279,0.99,2.82,-0.50,-301.82,259.89,203.86
1777399403003,2037289,0.54,2.63,-0.37,-229.06,241.52,198.18
1777399403003,2037299,0.15,2.39,-0.17,-156.74,202.27,152.71
1777399403003,2037309,-0.18,2.40,0.02,-80.26,150.94,73.36
1777399403003,2037319,-0.25,2.53,0.31,-6.90,96.62,-7.63
1777399403003,2037329,-0.16,2.73,0.44,37.54,35.10,-73.43
1777399403003,2037339,0.01,2.79,0.45,49.74,-50.60,-148.68
1777399403003,2037359,0.40,2.46,0.07,32.65,-97.72,-158.08
1777399403003,2037379,0.52,1.70,-0.44,66.35,-75.07,-123.11
1777399403004,2037399,-0.05,1.26,-0.37,122.31,-57.13,-99.30
1777399403004,2037419,-0.45,0.88,-0.33,138.67,-106.02,-101.68
1777399403004,2037429,-0.53,0.72,-0.40,140.87,-138.55,-104.68
1777399403004,2037439,-0.58,0.59,-0.47,149.29,-156.49,-105.41
1777399403004,2037449,-0.64,0.46,-0.48,161.93,-156.98,-102.23
1777399403004,2037459,-0.76,0.31,-0.50,180.24,-144.04,-96.56
1777399403004,2037469,-0.92,0.18,-0.45,208.13,-116.88,-88.75
1777399403004,2037479,-1.09,0.11,-0.34,234.50,-86.24,-82.76
1777399403004,2037489,-1.23,0.06,-0.18,248.47,-67.20,-80.32
1777399403004,2037499,-1.33,0.03,-0.06,249.63,-65.73,-82.15
1777399403005,2037509,-1.35,0.02,0.03,239.01,-78.74,-90.82
1777399403005,2037519,-1.28,0.03,0.05,217.47,-100.65,-101.50
1777399403005,2037529,-1.14,-0.01,-0.02,192.63,-122.92,-106.32
1777399403005,2037539,-0.99,-0.07,-0.09,175.42,-135.50,-107.12
1777399403005,2037549,-0.88,-0.14,-0.17,165.71,-134.03,-104.80
1777399403005,2037559,-0.83,-0.24,-0.24,160.10,-122.56,-100.22
1777399403005,2037569,-0.81,-0.33,-0.32,160.16,-103.88,-93.38
1777399403005,2037579,-0.83,-0.36,-0.36,167.05,-79.59,-85.39
1777399403005,2037589,-0.86,-0.36,-0.37,177.49,-53.59,-76.90
1777399403005,2037599,-0.91,-0.32,-0.34,187.56,-30.88,-69.76
1777399403006,2037609,-0.99,-0.28,-0.09,191.04,-17.70,-65.37
1777399403006,2037619,-1.00,-0.23,-0.14,180.85,-23.93,-65.92
1777399403006,2037629,-0.96,-0.40,-0.18,167.60,-36.68,-70.50
1777399403006,2037639,-1.03,-0.25,-0.10,158.75,-49.07,-81.05
1777399403006,2037649,-0.99,-0.26,-0.04,156.62,-64.70,-81.91
1777399403006,2037659,-0.91,-0.32,-0.03,152.53,-82.15,-82.34
1777399403006,2037669,-0.78,-0.44,-0.10,148.38,-95.40,-82.89
1777399403006,2037679,-0.72,-0.51,-0.16,151.25,-95.46,-64.27
1777399403006,2037699,-0.65,-0.55,-0.28,164.12,-30.70,-53.53
1777399403007,2037719,-0.76,-0.44,-0.17,161.01,22.52,-51.39
1777399403007,2037739,-1.10,-0.38,0.38,122.25,18.55,-49.56
1777399403007,2037759,-1.04,-0.57,0.11,80.81,-72.45,-44.80
1777399403007,2037769,-0.97,-0.70,-0.01,87.28,-114.81,-40.77
1777399403007,2037779,-0.92,-0.80,-0.09,97.41,-141.72,-43.46
1777399403007,2037789,-0.85,-0.91,-0.12,101.93,-149.84,-53.53
1777399403007,2037799,-0.79,-0.98,-0.19,104.68,-143.07,-69.70
1777399403007,2037809,-0.80,-0.89,-0.22,109.19,-127.75,-88.26
1777399403007,2037819,-0.81,-0.74,-0.23,117.92,-109.56,-103.15
1777399403008,2037829,-0.86,-0.60,-0.25,130.07,-87.28,-110.60
1777399403008,2037839,-0.86,-0.46,-0.27,131.84,-63.84,-112.79
1777399403008,2037849,-0.84,-0.36,-0.20,114.14,-41.87,-108.76
1777399403008,2037859,-0.84,-0.45,0.15,73.61,-23.13,-96.19
1777399403008,2037869,-0.67,-0.53,0.20,30.15,-20.57,-82.28
1777399403008,2037879,-0.73,-0.69,0.19,46.39,-34.06,-61.34
1777399403008,2037889,-0.78,-0.62,0.33,60.36,-46.08,-49.56
1777399403008,2037899,-0.81,-0.57,0.31,67.63,-61.22,-39.86
1777399403008,2037909,-0.80,-0.45,0.31,70.19,-74.40,-29.05
1777399403008,2037919,-0.88,-0.33,0.40,62.38,-85.51,-16.17
1777399403009,2037929,-0.94,-0.53,0.27,43.82,-97.23,-1.04
1777399403009,2037939,-0.90,-0.63,0.26,37.60,-100.83,8.30
1777399403009,2037949,-0.84,-0.60,0.29,35.40,-97.47,11.35
1777399403009,2037959,-0.85,-0.63,0.31,33.14,-91.37,12.76
1777399403009,2037969,-0.82,-0.70,0.33,26.18,-80.26,12.51
1777399403009,2037979,-0.80,-0.67,0.18,23.25,-65.06,13.00
1777399403009,2037989,-0.92,-0.60,0.21,26.98,-37.41,17.21
1777399403009,2037999,-0.88,-0.63,0.18,21.79,-10.19,21.00
1777399403009,2038009,-0.97,-0.72,0.11,24.17,14.16,23.68
1777399403009,2038019,-1.12,-0.82,0.18,25.57,39.00,23.07
1777399403010,2038029,-1.30,-1.20,0.41,39.31,52.31,-26.31
1777399403010,2038049,-1.09,-0.89,0.57,44.25,32.53,-76.05
1777399403010,2038069,-0.92,-0.68,0.57,36.80,-15.99,-90.94
1777399403010,2038089,-0.76,-0.78,0.36,4.64,-0.06,-96.62
1777399403010,2038109,-0.71,-0.90,0.33,-11.96,86.43,-96.13
1777399403010,2038119,-0.75,-0.87,0.38,-8.91,121.22,-101.07
1777399403010,2038129,-0.73,-0.78,0.42,-6.35,139.22,-109.07
1777399403010,2038139,-0.65,-0.65,0.38,-9.83,140.14,-113.46
1777399403010,2038149,-0.65,-0.56,0.51,-23.99,141.05,-113.22
1777399403011,2038159,-0.66,-0.85,0.41,-32.04,136.41,-104.74
1777399403011,2038169,-0.63,-0.62,0.36,-25.57,119.38,-97.23
1777399403011,2038179,-0.63,-0.64,0.33,-34.18,105.96,-93.20
1777399403011,2038189,-0.57,-0.65,0.25,-40.77,90.45,-91.37
1777399403011,2038199,-0.50,-0.63,0.21,-45.10,80.08,-91.92
1777399403011,2038209,-0.47,-0.61,0.21,-48.40,72.02,-87.95
1777399403011,2038219,-0.44,-0.62,0.21,-52.25,65.98,-81.97
1777399403011,2038229,-0.38,-0.59,0.21,-58.65,58.11,-76.48
1777399403011,2038239,-0.35,-0.59,0.16,-68.12,48.10,-70.56
1777399403011,2038249,-0.33,-0.61,0.08,-73.30,41.08,-61.77
1777399403012,2038259,-0.36,-0.62,0.04,-70.98,39.73,-52.00
1777399403012,2038269,-0.42,-0.62,0.00,-63.78,40.89,-44.56
1777399403012,2038279,-0.48,-0.64,-0.01,-57.68,41.50,-39.92
1777399403012,2038289,-0.49,-0.65,-0.03,-54.20,39.37,-39.12
1777399403012,2038299,-0.47,-0.65,-0.06,-51.64,36.50,-38.88
1777399403012,2038309,-0.44,-0.66,-0.08,-48.52,35.77,-36.25
1777399403012,2038319,-0.43,-0.66,-0.06,-45.72,36.99,-31.31
1777399403012,2038329,-0.42,-0.68,-0.05,-44.86,35.83,-24.60
1777399403013,2038339,-0.39,-0.68,-0.05,-43.88,30.15,-19.10
1777399403013,2038349,-0.37,-0.68,-0.07,-42.54,21.91,-13.55
1777399403013,2038359,-0.35,-0.68,-0.10,-39.73,14.95,-6.84
1777399403013,2038369,-0.36,-0.68,-0.13,-35.46,11.41,15.32
1777399403013,2038389,-0.42,-0.69,-0.18,-22.28,20.26,8.91
1777399403013,2038409,-0.58,-0.70,-0.18,-11.23,30.21,6.35
1777399403013,2038429,-0.73,-0.68,-0.13,-4.52,26.18,3.36
1777399403013,2038449,-0.69,-0.70,-0.13,-6.16,12.45,-1.53
1777399403013,2038459,-0.66,-0.70,-0.13,-8.12,6.53,-2.26
1777399403013,2038469,-0.63,-0.70,-0.14,-9.95,2.08,0.31
1777399403014,2038479,-0.62,-0.67,-0.16,-13.43,-0.73,3.78
1777399403014,2038489,-0.63,-0.68,-0.20,-19.17,-0.73,6.16
1777399403014,2038499,-0.66,-0.68,-0.26,-23.56,3.05,3.72
1777399403014,2038509,-0.65,-0.70,-0.31,-23.44,9.95,-2.75
1777399403014,2038519,-0.62,-0.71,-0.35,-18.62,18.74,-9.03
1777399403014,2038529,-0.60,-0.73,-0.32,-9.77,28.08,-10.99
1777399403014,2038539,-0.59,-0.71,-0.25,-2.32,33.26,-10.13
1777399403014,2038549,-0.57,-0.71,-0.21,-1.04,30.27,-9.83
1777399403014,2038559,-0.54,-0.70,-0.20,-2.81,21.06,-9.58
1777399403014,2038569,-0.50,-0.67,-0.24,-4.15,9.95,-8.00
1777399403015,2038579,-0.49,-0.67,-0.25,-3.17,0.92,-3.66
1777399403015,2038589,-0.49,-0.67,-0.26,-2.44,-5.37,1.04
1777399403015,2038599,-0.45,-0.66,-0.30,-2.32,-9.89,2.99
1777399403015,2038609,-0.46,-0.66,-0.33,-0.73,-10.50,6.35
1777399403015,2038619,-0.48,-0.64,-0.32,3.36,-8.79,10.44
1777399403015,2038629,-0.52,-0.64,-0.30,6.65,-9.03,12.82
1777399403015,2038639,-0.54,-0.61,-0.27,9.58,-12.02,12.76
1777399403015,2038649,-0.55,-0.62,-0.27,10.25,-18.19,13.98
1777399403015,2038659,-0.60,-0.62,-0.25,10.99,-24.78,14.83
1777399403015,2038669,-0.61,-0.63,-0.25,11.66,-31.25,14.95
1777399403016,2038679,-0.61,-0.68,-0.26,12.88,-35.77,14.83
1777399403016,2038689,-0.61,-0.66,-0.25,15.99,-35.40,14.95
1777399403016,2038699,-0.60,-0.67,-0.25,17.40,-30.46,16.85
1777399403016,2038709,-0.61,-0.72,-0.31,19.35,-23.86,18.68
1777399403016,2038719,-0.62,-0.73,-0.33,31.25,-13.67,18.98
1777399403016,2038739,-0.70,-0.71,-0.18,58.72,2.01,15.14
1777399403016,2038759,-0.67,-0.71,-0.06,45.04,-11.66,9.03
1777399403016,2038779,-0.58,-0.77,-0.21,25.94,-14.71,11.35
1777399403016,2038799,-0.60,-0.81,-0.18,40.28,11.84,13.43
1777399403016,2038809,-0.63,-0.82,-0.11,47.85,21.55,12.88
1777399403017,2038819,-0.63,-0.84,-0.06,50.78,22.89,11.05
1777399403017,2038829,-0.62,-0.87,-0.06,49.62,16.78,9.52
1777399403017,2038839,-0.61,-0.87,-0.05,50.05,8.00,9.40
1777399403017,2038849,-0.59,-0.86,-0.05,50.05,-1.28,8.85
1777399403017,2038859,-0.55,-0.84,-0.06,46.81,-8.48,8.24
1777399403017,2038869,-0.52,-0.82,-0.08,40.89,-12.70,9.46
1777399403017,2038879,-0.50,-0.82,-0.11,34.97,-12.70,11.05
1777399403017,2038889,-0.48,-0.81,-0.15,31.37,-8.36,11.17
1777399403017,2038899,-0.48,-0.82,-0.18,31.86,0.00,11.47
1777399403018,2038909,-0.51,-0.82,-0.17,36.01,8.06,13.85
1777399403018,2038919,-0.55,-0.79,-0.13,39.55,10.99,16.72
1777399403018,2038929,-0.58,-0.77,-0.09,37.35,7.20,18.49
1777399403018,2038939,-0.59,-0.75,-0.11,29.30,-2.87,19.23
1777399403018,2038949,-0.58,-0.75,-0.15,20.75,-14.16,18.92
1777399403018,2038959,-0.54,-0.73,-0.23,15.26,-25.27,19.04
1777399403018,2038969,-0.51,-0.72,-0.33,14.47,-32.35,19.65
1777399403018,2038979,-0.48,-0.69,-0.39,20.08,-31.25,20.20
1777399403018,2038989,-0.49,-0.66,-0.38,27.22,-23.25,22.16
1777399403019,2038999,-0.50,-0.64,-0.37,30.70,-15.50,26.73
1777399403019,2039009,-0.53,-0.64,-0.37,31.86,-11.60,33.20
1777399403019,2039019,-0.58,-0.64,-0.35,34.36,-11.60,37.72
1777399403019,2039029,-0.63,-0.63,-0.29,37.66,-17.88,39.49
1777399403019,2039039,-0.66,-0.64,-0.25,37.48,-29.72,40.53
1777399403019,2039049,-0.68,-0.66,-0.22,33.87,-42.54,41.87
1777399403019,2039059,-0.67,-0.70,-0.23,29.42,-53.22,43.88
1777399403019,2039069,-0.74,-0.73,-0.24,26.67,-56.46,47.06
1777399403019,2039089,-0.80,-0.78,-0.24,22.83,-29.42,56.64
1777399403020,2039109,-0.93,-0.83,-0.08,10.01,-25.76,66.83
1777399403020,2039129,-0.97,-0.83,-0.13,-6.84,-49.74,71.78
1777399403020,2039139,-0.96,-0.81,-0.19,-13.00,-58.59,80.02
1777399403020,2039149,-0.96,-0.82,-0.29,-19.17,-56.82,90.45
1777399403020,2039159,-1.01,-0.85,-0.33,-22.64,-42.60,102.36
1777399403020,2039169,-1.12,-0.96,-0.33,-26.67,-25.33,116.15
1777399403020,2039179,-1.25,-1.16,-0.34,-35.03,-13.18,131.59
1777399403020,2039189,-1.45,-1.47,-0.42,-51.33,-8.00,145.14
1777399403020,2039199,-1.60,-1.90,-0.56,-73.43,-5.62,158.33
1777399403021,2039209,-1.71,-2.38,-0.78,-107.12,-0.55,176.33
1777399403021,2039219,-1.74,-3.05,-0.89,-156.31,18.92,202.58
1777399403021,2039229,-1.44,-4.00,-0.95,-218.14,52.43,228.82
1777399403021,2039239,-1.22,-4.00,-1.14,-268.80,87.46,245.36
1777399403021,2039249,-1.59,-4.00,-0.64,-261.54,132.69,248.47
1777399403021,2039259,-2.45,-4.00,1.09,-211.30,166.32,231.14
1777399403021,2039269,-3.06,-4.00,3.56,-184.69,146.67,184.45
1777399403021,2039279,-2.76,-4.00,4.00,-201.60,92.04,124.39
1777399403021,2039289,-1.81,-4.00,4.00,-284.42,72.02,88.62
1777399403022,2039299,-0.77,-2.81,4.00,-406.49,134.40,77.76
1777399403022,2039309,0.05,-1.28,4.00,-525.02,260.74,78.49
1777399403022,2039319,0.26,0.10,4.00,-634.46,370.79,117.19
1777399403022,2039329,0.16,0.96,4.00,-725.46,420.35,154.36
1777399403022,2039339,0.39,1.66,4.00,-765.62,419.19,137.39
1777399403022,2039349,0.87,2.28,4.00,-761.41,378.23,86.61
1777399403022,2039359,1.34,2.68,3.77,-730.29,318.24,47.67
1777399403022,2039369,1.56,2.67,2.61,-681.88,259.46,32.35
1777399403022,2039379,1.40,2.77,1.86,-596.31,221.86,16.11
1777399403022,2039389,0.92,3.05,1.53,-489.62,193.12,2.14
1777399403023,2039399,0.53,3.27,1.05,-400.21,153.14,-3.17
1777399403023,2039409,0.09,3.28,0.76,-323.06,131.59,-47.06
1777399403023,2039429,-0.42,3.43,1.09,-116.15,36.56,-120.12
1777399403023,2039449,-0.16,3.49,0.67,-64.45,19.78,-126.53
1777399403023,2039469,-0.06,3.01,0.48,-36.01,29.30,-92.53
1777399403023,2039489,-0.17,2.49,0.14,7.81,-8.73,-76.97
1777399403023,2039499,-0.23,2.32,0.01,38.82,-27.59,-77.51
1777399403023,2039509,-0.29,2.20,-0.02,69.70,-42.48,-74.58
1777399403024,2039519,-0.36,2.07,-0.02,95.15,-50.29,-66.65
1777399403024,2039529,-0.47,1.94,0.03,114.44,-53.34,-55.30
1777399403024,2039539,-0.57,1.80,0.13,128.30,-55.85,-42.36
1777399403024,2039549,-0.73,1.58,0.31,134.77,-58.11,-29.17
1777399403024,2039559,-0.78,1.39,0.17,136.05,-61.22,-17.64
1777399403024,2039569,-0.79,1.11,0.06,136.78,-57.43,-11.41
1777399403024,2039579,-0.94,0.91,0.10,148.32,-50.60,-12.70
1777399403024,2039589,-1.07,0.74,0.12,162.72,-50.11,-17.09
1777399403024,2039599,-1.15,0.59,0.06,177.49,-55.30,-25.33
1777399403024,2039609,-1.19,0.46,-0.00,195.68,-61.77,-35.95
1777399403024,2039619,-1.20,0.38,-0.04,215.70,-69.09,-46.33
1777399403025,2039629,-1.19,0.32,-0.05,234.56,-79.53,-55.60
1777399403025,2039639,-1.16,0.29,-0.05,251.10,-88.87,-62.32
1777399403025,2039649,-1.11,0.21,-0.03,263.12,-92.10,-66.96
1777399403025,2039659,-1.03,0.12,-0.01,273.80,-86.98,-70.56
1777399403025,2039669,-0.98,0.11,0.11,285.89,-74.65,-74.52
1777399403025,2039679,-0.94,0.10,0.21,291.69,-62.74,-77.64
1777399403025,2039689,-0.93,0.03,0.25,285.77,-54.69,-80.08
1777399403025,2039699,-0.96,-0.04,0.27,274.48,-51.88,-82.03
1777399403025,2039709,-0.97,-0.12,0.19,262.88,-58.65,-83.44
1777399403025,2039719,-0.95,-0.21,0.07,255.37,-66.83,-86.36
1777399403026,2039729,-0.93,-0.28,-0.05,252.38,-70.56,-90.70
1777399403026,2039739,-0.94,-0.36,-0.12,255.86,-70.01,-95.09
1777399403026,2039749,-0.94,-0.44,-0.10,267.03,-68.79,-101.38
1777399403026,2039759,-0.91,-0.47,-0.01,279.85,-88.13,-121.95
1777399403026,2039779,-0.80,-0.52,0.10,288.02,-103.94,-144.35
1777399403026,2039799,-0.72,-0.54,0.15,273.99,-111.15,-149.29
1777399403026,2039819,-0.69,-0.64,0.14,258.73,-100.34,-144.41
1777399403026,2039829,-0.67,-0.71,0.12,254.15,-92.53,-143.37
1777399403026,2039839,-0.65,-0.74,0.16,253.60,-85.08,-144.84
1777399403027,2039849,-0.61,-0.76,0.20,251.59,-82.76,-148.19
1777399403027,2039859,-0.55,-0.74,0.24,244.57,-87.89,-150.39
1777399403027,2039869,-0.50,-0.72,0.32,231.57,-97.47,-146.85
1777399403027,2039879,-0.47,-0.77,0.37,210.75,-110.47,-137.94
1777399403027,2039889,-0.44,-0.81,0.32,186.71,-121.46,-126.71
1777399403027,2039899,-0.45,-0.89,0.25,165.34,-121.52,-116.70
1777399403027,2039909,-0.45,-0.94,0.23,153.50,-106.93,-109.13
1777399403027,2039919,-0.50,-0.95,0.28,147.83,-85.94,-101.20
1777399403027,2039929,-0.56,-0.98,0.33,143.80,-67.38,-92.35
1777399403028,2039939,-0.62,-0.99,0.40,140.38,-54.93,-86.67
1777399403028,2039949,-0.66,-0.98,0.48,135.62,-51.09,-83.01
1777399403028,2039959,-0.68,-0.96,0.55,126.10,-55.73,-81.12
1777399403028,2039969,-0.67,-0.94,0.56,114.14,-66.28,-79.65
1777399403028,2039979,-0.65,-0.89,0.54,101.93,-77.15,-75.32
1777399403028,2039989,-0.65,-0.87,0.51,85.57,-83.92,-66.96
1777399403028,2039999,-0.67,-0.87,0.45,69.21,-86.55,-58.29
1777399403028,2040009,-0.68,-0.85,0.40,56.88,-81.48,-51.70
1777399403028,2040019,-0.68,-0.83,0.34,47.18,-68.97,-45.35
1777399403028,2040029,-0.69,-0.82,0.30,39.86,-50.72,-37.72
1777399403029,2040039,-0.75,-0.82,0.33,36.01,-31.31,-30.15
1777399403029,2040049,-0.83,-0.80,0.42,34.91,-16.72,-25.21
1777399403029,2040059,-0.86,-0.77,0.50,31.25,-13.18,-22.03
1777399403029,2040069,-0.86,-0.75,0.53,22.83,-19.96,-18.92
1777399403029,2040079,-0.85,-0.73,0.54,12.27,-30.21,-16.48
1777399403029,2040089,-0.80,-0.72,0.54,2.01,-39.79,-16.48
1777399403029,2040099,-0.73,-0.71,0.50,-6.16,-48.03,-19.96
1777399403029,2040119,-0.56,-0.72,0.34,4.82,-34.00,-25.33
1777399403029,2040139,-0.42,-0.67,0.42,18.13,-2.20,-14.16
1777399403029,2040159,-0.53,-0.65,0.50,14.53,4.70,0.24
1777399403030,2040179,-0.57,-0.66,0.47,4.15,-14.53,2.62
1777399403030,2040189,-0.57,-0.69,0.42,-1.04,-24.72,1.71
1777399403030,2040199,-0.55,-0.72,0.36,-1.59,-30.82,-0.49
1777399403030,2040209,-0.53,-0.75,0.31,3.42,-32.35,-4.21
1777399403030,2040219,-0.49,-0.77,0.30,13.55,-31.13,-8.06
1777399403030,2040229,-0.46,-0.77,0.32,26.61,-29.36,-10.68
1777399403030,2040239,-0.45,-0.75,0.36,37.66,-27.89,-11.29
1777399403030,2040249,-0.44,-0.75,0.43,43.58,-26.43,-10.68
1777399403030,2040259,-0.45,-0.71,0.51,43.70,-27.89,-9.52
1777399403030,2040269,-0.46,-0.71,0.59,37.23,-33.81,-6.29
1777399403031,2040279,-0.47,-0.72,0.62,28.02,-41.81,-2.32
1777399403031,2040289,-0.47,-0.73,0.62,20.87,-46.45,0.31
1777399403031,2040299,-0.49,-0.73,0.61,18.07,-43.82,-0.37
1777399403031,2040309,-0.51,-0.72,0.62,19.17,-32.47,-5.00
1777399403031,2040319,-0.52,-0.70,0.67,21.18,-18.49,-10.44
1777399403031,2040329,-0.52,-0.67,0.70,23.19,-7.57,-12.94
1777399403031,2040339,-0.53,-0.63,0.72,21.91,0.06,-12.27
1777399403031,2040349,-0.53,-0.61,0.73,16.42,5.86,-10.38
1777399403031,2040359,-0.55,-0.60,0.73,9.28,10.44,-8.85
1777399403031,2040369,-0.56,-0.58,0.72,1.77,11.96,-8.67
1777399403032,2040379,-0.56,-0.59,0.68,-3.97,9.70,-9.46
1777399403032,2040389,-0.55,-0.58,0.65,-5.43,7.14,-10.19
1777399403032,2040399,-0.54,-0.55,0.62,-4.82,5.62,-10.50
1777399403032,2040409,-0.53,-0.56,0.60,-5.07,5.86,-11.78
1777399403032,2040419,-0.51,-0.55,0.58,-4.88,6.59,-12.39
1777399403032,2040429,-0.51,-0.55,0.57,-3.11,7.39,-10.56
1777399403032,2040439,-0.53,-0.53,0.58,0.24,8.73,-9.40
1777399403032,2040449,-0.53,-0.52,0.59,0.43,9.40,-9.52
1777399403032,2040469,-0.53,-0.55,0.56,-1.53,6.47,-3.11
1777399403032,2040489,-0.54,-0.54,0.52,2.44,5.13,-6.90
1777399403032,2040509,-0.53,-0.54,0.50,7.08,8.24,-3.17
1777399403033,2040529,-0.55,-0.49,0.51,9.28,13.37,-1.22
1777399403033,2040539,-0.55,-0.54,0.50,6.47,14.40,-0.18
1777399403033,2040549,-0.55,-0.55,0.49,6.65,15.14,2.08
1777399403033,2040559,-0.56,-0.56,0.49,8.54,15.38,4.09
1777399403033,2040569,-0.57,-0.56,0.51,9.34,14.83,4.39
1777399403033,2040579,-0.58,-0.59,0.52,9.03,11.35,4.76
1777399403033,2040589,-0.57,-0.60,0.52,9.52,5.37,5.13
1777399403033,2040599,-0.57,-0.60,0.51,10.62,-0.92,4.70
1777399403033,2040609,-0.57,-0.61,0.51,11.90,-5.98,4.03
1777399403033,2040619,-0.57,-0.61,0.51,14.10,-9.09,3.36
1777399403033,2040629,-0.56,-0.61,0.52,16.24,-10.19,3.05
1777399403034,2040639,-0.57,-0.59,0.54,17.82,-9.64,3.05
1777399403034,2040649,-0.59,-0.59,0.56,18.13,-7.45,3.11
1777399403034,2040659,-0.59,-0.59,0.58,16.48,-5.49,2.56
1777399403034,2040669,-0.58,-0.59,0.57,13.98,-3.78,2.20
1777399403034,2040679,-0.58,-0.60,0.58,11.60,-1.53,3.05
1777399403034,2040689,-0.58,-0.60,0.58,9.95,0.18,4.58
1777399403034,2040699,-0.59,-0.60,0.58,8.97,1.10,5.37
1777399403034,2040709,-0.60,-0.60,0.58,9.28,2.01,5.31
1777399403034,2040719,-0.61,-0.59,0.58,9.70,3.23,4.03
1777399403034,2040729,-0.62,-0.58,0.59,9.64,4.39,2.87
1777399403034,2040739,-0.62,-0.58,0.59,8.85,4.88,2.44
1777399403035,2040749,-0.63,-0.57,0.59,7.20,4.58,1.95
1777399403035,2040759,-0.64,-0.56,0.58,5.19,4.27,0.92
1777399403035,2040769,-0.64,-0.56,0.57,2.81,4.64,0.18
1777399403035,2040779,-0.64,-0.57,0.56,1.04,5.86,-0.31
1777399403035,2040789,-0.64,-0.56,0.55,0.18,7.14,-0.85
1777399403035,2040809,-0.64,-0.56,0.54,0.12,12.94,-0.79
1777399403035,2040829,-0.63,-0.55,0.53,0.55,17.94,-0.31
1777399403035,2040849,-0.63,-0.55,0.52,0.61,19.23,-0.31
1777399403035,2040869,-0.63,-0.54,0.50,-2.44,20.02,-0.18
1777399403035,2040879,-0.63,-0.54,0.50,-4.09,20.51,0.24
1777399403035,2040889,-0.64,-0.55,0.49,-5.31,20.26,0.49
1777399403036,2040899,-0.65,-0.55,0.49,-5.00,19.29,0.49
1777399403036,2040909,-0.65,-0.56,0.48,-3.23,17.94,0.61
1777399403036,2040919,-0.66,-0.55,0.49,-1.59,17.27,0.37
1777399403036,2040929,-0.67,-0.56,0.50,-0.98,16.54,-0.24
1777399403036,2040939,-0.68,-0.56,0.51,-1.04,14.77,-0.79
1777399403036,2040949,-0.68,-0.56,0.51,-0.79,11.96,-1.16
1777399403036,2040959,-0.67,-0.56,0.51,-0.49,8.73,-2.20
1777399403036,2040969,-0.66,-0.56,0.50,-0.85,5.80,-2.62
1777399403036,2040979,-0.66,-0.56,0.49,-1.28,4.03,-2.50
1777399403036,2040989,-0.66,-0.56,0.48,-1.34,3.91,-2.38
1777399403037,2040999,-0.66,-0.55,0.47,-1.10,5.86,-2.50
1777399403037,2041009,-0.67,-0.55,0.48,0.12,8.42,-2.75
1777399403037,2041019,-0.67,-0.54,0.49,1.40,10.93,-2.50
1777399403037,2041029,-0.68,-0.54,0.50,1.53,13.24,-1.95
1777399403037,2041039,-0.70,-0.55,0.52,0.73,14.77,-1.40
1777399403037,2041049,-0.70,-0.55,0.52,-0.24,14.71,-1.71
1777399403037,2041059,-0.71,-0.54,0.52,-1.83,13.67,-2.69
1777399403037,2041069,-0.71,-0.54,0.52,-3.85,11.78,-3.48
1777399403037,2041079,-0.72,-0.55,0.51,-5.55,9.83,-4.52
1777399403037,2041089,-0.71,-0.55,0.49,-6.35,8.12,-5.98
1777399403038,2041099,-0.71,-0.55,0.48,-5.86,7.63,-6.77
1777399403038,2041109,-0.70,-0.55,0.47,-4.52,9.22,-7.57
1777399403038,2041119,-0.69,-0.55,0.46,-3.23,12.45,-8.36
1777399403038,2041129,-0.69,-0.55,0.45,-2.50,17.40,-8.24
1777399403038,2041139,-0.70,-0.56,0.46,-1.65,23.19,-5.98
1777399403038,2041159,-0.74,-0.57,0.50,-6.04,36.25,-5.49
1777399403038,2041179,-0.80,-0.60,0.51,-13.79,33.57,-8.48
1777399403038,2041199,-0.75,-0.60,0.44,-18.37,43.46,-7.14
1777399403038,2041219,-0.80,-0.61,0.46,-25.27,68.85,-2.75
1777399403038,2041229,-0.82,-0.63,0.46,-29.85,77.76,-2.01
1777399403039,2041239,-0.84,-0.64,0.44,-32.90,81.85,-2.93
1777399403039,2041249,-0.85,-0.65,0.42,-33.51,82.70,-5.74
1777399403039,2041259,-0.85,-0.64,0.40,-32.59,82.58,-10.68
1777399403039,2041269,-0.84,-0.61,0.40,-33.26,82.15,-17.03
1777399403039,2041279,-0.80,-0.58,0.40,-36.93,77.33,-23.19
1777399403039,2041289,-0.75,-0.54,0.33,-41.56,69.82,-27.47
1777399403039,2041299,-0.68,-0.51,0.26,-46.81,65.49,-29.11
1777399403039,2041309,-0.61,-0.51,0.19,-50.54,64.33,-29.72
1777399403039,2041319,-0.57,-0.50,0.14,-51.82,67.75,-29.97
1777399403039,2041329,-0.57,-0.50,0.13,-48.22,72.63,-29.05
1777399403040,2041339,-0.58,-0.51,0.13,-40.77,76.17,-28.38
1777399403047,2041349,-0.57,-0.49,0.15,-32.29,75.20,-30.70
1777399403057,2041359,-0.56,-0.46,0.17,-26.67,68.24,-34.42
1777399403067,2041369,-0.52,-0.43,0.18,-24.60,55.24,-37.54
1777399403077,2041379,-0.47,-0.40,0.15,-24.66,36.87,-39.43
1777399403087,2041389,-0.41,-0.37,0.08,-23.68,17.09,-38.82
1777399403097,2041399,-0.37,-0.35,-0.00,-20.69,0.85,-36.32
1777399403107,2041409,-0.34,-0.35,-0.08,-15.93,-9.89,-33.94
1777399403117,2041419,-0.36,-0.36,-0.13,-9.28,-15.44,-31.56
1777399403127,2041429,-0.40,-0.38,-0.18,0.31,-20.08,-28.69
1777399403137,2041439,-0.48,-0.36,-0.22,12.57,-27.71,-25.76
1777399403147,2041449,-0.53,-0.38,-0.22,26.31,-39.31,-25.02
1777399403157,2041459,-0.55,-0.37,-0.26,36.80,-57.01,-24.96
1777399403167,2041469,-0.54,-0.36,-0.35,43.95,-77.03,-21.91
1777399403177,2041479,-0.53,-0.28,-0.39,49.19,-90.76,-15.08
1777399403198,2041499,-0.68,-0.35,-0.35,42.30,-93.08,18.92
1777399403217,2041519,-1.00,-0.56,-0.36,60.49,-80.44,21.30
1777399403237,2041539,-1.48,-0.73,-0.01,100.71,-94.06,-2.01
1777399403257,2041559,-1.32,-0.96,0.15,109.50,-160.83,-20.69
1777399403267,2041569,-1.16,-1.04,0.25,103.52,-173.58,-19.78
1777399403277,2041579,-1.04,-1.18,0.39,86.43,-166.81,-4.21
1777399403287,2041589,-1.03,-1.43,0.45,51.88,-145.75,23.80
1777399403297,2041599,-1.11,-1.86,0.32,10.86,-115.05,54.38
1777399403307,2041609,-1.22,-2.39,0.01,-18.62,-76.42,80.44
1777399403317,2041619,-1.42,-3.12,-0.21,-33.63,-32.10,111.27
1777399403327,2041629,-1.65,-3.96,-0.17,-43.88,1.22,149.48
1777399403337,2041639,-1.78,-4.00,0.04,-72.45,3.85,188.17
1777399403347,2041649,-1.47,-4.00,0.44,-123.72,-17.76,209.84
1777399403357,2041659,-0.56,-4.00,1.07,-189.64,-46.20,215.58
1777399403367,2041669,0.72,-4.00,1.87,-255.25,-63.23,223.69
1777399403377,2041679,1.91,-4.00,2.92,-301.21,-51.15,252.87
1777399403387,2041689,2.69,-4.00,4.00,-325.26,-2.93,301.15
1777399403397,2041699,3.04,-4.00,4.00,-338.38,78.86,342.41
1777399403407,2041709,3.23,-4.00,4.00,-383.48,152.34,362.00
1777399403417,2041719,3.62,-3.46,4.00,-490.66,183.04,370.61
1777399403429,2041729,3.82,-1.44,4.00,-613.65,202.39,393.49
1777399403437,2041739,3.39,0.02,4.00,-691.83,231.99,432.68
1777399403447,2041749,2.71,1.32,4.00,-729.98,253.72,449.34
1777399403457,2041759,2.63,2.76,4.00,-763.55,243.16,442.99
1777399403467,2041769,2.67,3.61,4.00,-786.50,242.55,437.50
1777399403477,2041779,2.35,3.39,3.92,-767.33,274.66,419.19
1777399403487,2041789,1.88,2.82,2.65,-679.81,294.37,357.54
1777399403497,2041799,1.31,2.61,2.38,-553.16,261.96,255.43
1777399403507,2041809,1.12,2.80,2.37,-396.30,187.87,146.30
1777399403517,2041819,0.93,3.57,2.21,-265.26,114.26,39.67
1777399403527,2041829,0.65,3.94,2.09,-199.52,62.81,-42.72
1777399403547,2041849,0.24,4.00,1.34,-149.11,7.32,-32.96
1777399403567,2041869,-0.18,3.54,0.49,-117.07,25.27,-8.12
1777399403587,2041889,-0.48,2.81,0.09,-49.80,61.77,-20.94
1777399403608,2041909,-0.58,2.23,-0.08,31.31,34.42,-40.83
1777399403619,2041919,-0.67,1.97,-0.09,60.30,10.38,-47.73
1777399403628,2041929,-0.76,1.77,-0.13,87.22,-9.16,-53.04
1777399403637,2041939,-0.84,1.61,-0.12,110.11,-19.90,-55.11
1777399403647,2041949,-0.96,1.32,-0.09,122.99,-24.66,-51.33
1777399403657,2041959,-1.07,1.05,-0.19,126.53,-31.68,-44.74
1777399403667,2041969,-1.14,0.56,0.03,127.93,-46.51,-40.83
1777399403677,2041979,-1.18,0.72,-0.21,127.81,-62.87,-48.10
1777399403687,2041989,-1.22,0.42,0.08,128.17,-54.50,-43.88
1777399403697,2041999,-1.22,0.42,-0.15,149.41,-53.34,-42.60
1777399403708,2042009,-1.20,0.36,-0.05,169.43,-39.73,-38.94
1777399403717,2042019,-1.19,0.33,-0.08,192.81,-28.14,-33.87
1777399403727,2042029,-1.17,0.30,-0.05,211.85,-15.93,-31.25
1777399403737,2042039,-1.14,0.28,-0.02,221.86,-4.82,-32.04
1777399403747,2042049,-1.12,0.23,0.02,223.82,-2.20,-33.08
1777399403757,2042059,-1.08,0.19,0.03,224.24,-5.68,-34.00
1777399403767,2042069,-1.04,0.13,0.01,219.18,-6.71,-35.71
1777399403777,2042079,-1.02,0.05,-0.03,212.89,-5.13,-33.57
1777399403787,2042089,-0.98,-0.02,-0.09,215.09,0.92,-24.96
1777399403797,2042099,-0.99,-0.02,-0.11,221.80,14.65,-16.05
1777399403808,2042109,-1.02,-0.02,-0.10,230.35,31.37,-7.14
1777399403817,2042119,-1.06,-0.05,-0.07,240.66,46.51,0.06
1777399403827,2042129,-1.12,-0.08,-0.05,249.88,55.97,-1.77
1777399403837,2042139,-1.26,-0.12,0.05,252.75,55.42,-14.47
1777399403847,2042149,-1.30,-0.19,0.16,251.77,38.51,-32.59
1777399403857,2042159,-1.27,-0.22,0.22,247.86,7.45,-54.44
1777399403867,2042169,-1.18,-0.22,0.22,238.77,-28.56,-95.58
1777399403887,2042189,-0.87,-0.21,-0.01,197.02,-80.93,-100.83
