host_time_ms,arduino_time_ms,ax,ay,az,gx,gy,gz
1777399407969,2042209,-0.72,-0.50,-0.55,187.81,-17.40,-81.85
1777399407969,2042229,-0.96,-0.50,-0.61,221.07,75.50,-82.89
1777399407969,2042249,-1.09,-0.39,-0.17,248.29,92.90,-88.87
1777399407969,2042259,-1.07,-0.44,0.07,240.97,59.39,-91.13
1777399407969,2042269,-0.97,-0.55,0.21,222.66,6.47,-97.29
1777399407970,2042279,-0.81,-0.65,0.16,197.14,-52.31,-103.94
1777399407970,2042289,-0.64,-0.71,-0.05,170.53,-100.10,-105.65
1777399407970,2042299,-0.52,-0.71,-0.24,150.45,-117.37,-98.82
1777399407970,2042309,-0.48,-0.74,-0.41,140.50,-104.00,-83.07
1777399407970,2042319,-0.52,-0.77,-0.53,138.67,-66.41,-67.02
1777399407971,2042329,-0.64,-0.80,-0.53,141.91,-13.12,-55.42
1777399407971,2042339,-0.75,-0.78,-0.43,144.96,38.02,-51.21
1777399407971,2042349,-0.87,-0.73,-0.24,141.36,72.45,-51.27
1777399407971,2042359,-0.95,-0.70,-0.05,130.98,82.15,-51.39
1777399407971,2042369,-0.96,-0.71,0.06,114.26,67.69,-51.09
1777399407972,2042379,-0.92,-0.75,0.11,91.86,33.63,-49.19
1777399407972,2042389,-0.84,-0.78,0.03,72.51,-6.59,-47.00
1777399407972,2042399,-0.75,-0.78,-0.09,60.12,-38.51,-44.56
1777399407972,2042409,-0.67,-0.76,-0.17,51.82,-55.60,-39.37
1777399407973,2042419,-0.63,-0.74,-0.26,46.94,-58.84,-32.90
1777399407973,2042429,-0.64,-0.74,-0.32,46.39,-48.22,-29.24
1777399407973,2042439,-0.70,-0.71,-0.34,51.15,-25.63,-29.72
1777399407973,2042449,-0.76,-0.66,-0.25,55.36,1.22,-31.01
1777399407973,2042459,-0.81,-0.63,-0.12,52.98,17.76,-33.51
1777399407973,2042469,-0.84,-0.61,-0.03,46.02,17.15,-37.05
1777399407974,2042479,-0.81,-0.59,-0.01,35.58,4.58,-39.06
1777399407974,2042489,-0.77,-0.60,-0.05,23.19,-11.54,-37.54
1777399407974,2042499,-0.71,-0.63,-0.09,13.37,-24.17,-32.17
1777399407974,2042509,-0.64,-0.64,-0.12,7.02,-31.37,-24.66
1777399407974,2042519,-0.61,-0.64,-0.14,2.20,-32.29,-9.70
1777399407975,2042539,-0.67,-0.66,-0.16,4.46,-8.36,-8.97
1777399407975,2042559,-0.77,-0.64,-0.06,14.53,5.86,-19.90
1777399407975,2042579,-0.79,-0.62,-0.05,13.37,-5.98,-21.79
1777399407975,2042599,-0.74,-0.62,-0.07,11.05,-17.46,-24.48
1777399407975,2042609,-0.72,-0.62,-0.07,10.86,-21.00,-21.79
1777399407976,2042619,-0.72,-0.61,-0.06,10.68,-22.77,-17.94
1777399407976,2042629,-0.72,-0.59,-0.06,8.54,-22.71,-16.05
1777399407976,2042639,-0.72,-0.59,-0.06,4.76,-21.73,-14.47
1777399407976,2042649,-0.74,-0.59,-0.08,2.32,-20.14,-11.54
1777399407976,2042659,-0.78,-0.60,-0.10,2.38,-16.05,-11.11
1777399407977,2042669,-0.80,-0.62,-0.10,4.82,-10.25,-15.01
1777399407977,2042679,-0.80,-0.62,-0.09,9.16,-7.08,-19.41
1777399407977,2042689,-0.80,-0.62,-0.07,13.24,-7.63,-21.91
1777399407978,2042699,-0.82,-0.61,-0.05,15.44,-12.21,-23.80
1777399407978,2042709,-0.80,-0.62,-0.04,16.24,-19.10,-24.84
1777399407978,2042719,-0.77,-0.60,-0.05,15.87,-26.92,-24.72
1777399407978,2042729,-0.76,-0.59,-0.07,14.59,-32.17,-22.22
1777399407978,2042739,-0.74,-0.59,-0.09,13.67,-32.17,-18.25
1777399407978,2042749,-0.73,-0.58,-0.09,11.84,-27.04,-15.08
1777399407979,2042759,-0.73,-0.58,-0.08,10.50,-18.74,-12.76
1777399407979,2042769,-0.75,-0.59,-0.07,10.07,-8.73,-11.96
1777399407979,2042779,-0.76,-0.60,-0.04,9.70,-0.55,-12.39
1777399407979,2042789,-0.78,-0.61,-0.02,11.05,3.36,-13.67
1777399407979,2042799,-0.77,-0.61,0.00,13.00,3.66,-15.87
1777399407980,2042809,-0.76,-0.60,0.01,14.28,0.55,-17.40
1777399407980,2042819,-0.74,-0.59,-0.00,15.26,-4.46,-17.52
1777399407980,2042829,-0.72,-0.60,-0.02,15.93,-8.85,-16.97
1777399407980,2042839,-0.69,-0.60,-0.04,16.97,-11.29,-15.32
1777399407980,2042849,-0.68,-0.58,-0.05,17.46,-11.60,-12.88
1777399407980,2042859,-0.68,-0.57,-0.05,16.91,-9.83,-9.89
1777399407981,2042879,-0.69,-0.59,-0.05,16.54,0.24,-3.91
1777399407981,2042899,-0.70,-0.65,0.03,19.23,2.99,-2.14
1777399407981,2042919,-0.69,-0.65,0.05,19.17,-7.81,0.06
1777399407981,2042939,-0.69,-0.67,0.04,17.46,-17.27,1.53
1777399407981,2042949,-0.69,-0.67,0.04,17.40,-19.84,1.83
1777399407981,2042959,-0.71,-0.66,0.04,18.07,-21.06,2.87
1777399407982,2042969,-0.74,-0.65,0.04,18.43,-19.96,3.11
1777399407982,2042979,-0.77,-0.66,0.05,17.70,-18.07,1.77
1777399407982,2042989,-0.79,-0.66,0.06,17.94,-15.44,1.59
1777399407982,2042999,-0.82,-0.64,0.08,18.68,-11.96,2.14
1777399407982,2043009,-0.86,-0.62,0.10,17.76,-8.18,0.79
1777399407982,2043019,-0.88,-0.62,0.11,14.71,-5.37,-2.56
1777399407983,2043029,-0.87,-0.60,0.10,11.72,-3.30,-5.19
1777399407983,2043039,-0.86,-0.58,0.09,9.46,-0.92,-5.43
1777399407983,2043049,-0.86,-0.57,0.07,7.63,1.77,-5.19
1777399407983,2043059,-0.84,-0.57,0.05,5.86,3.97,-6.16
1777399407983,2043069,-0.80,-0.56,0.02,4.70,5.86,-6.77
1777399407983,2043079,-0.77,-0.56,-0.01,5.07,8.12,-6.04
1777399407983,2043089,-0.74,-0.56,-0.03,6.47,11.05,-4.27
1777399407984,2043099,-0.74,-0.56,-0.04,9.09,14.65,-2.38
1777399407984,2043109,-0.73,-0.56,-0.04,12.33,17.27,-1.53
1777399407984,2043119,-0.74,-0.56,-0.03,15.69,18.13,-1.83
1777399407984,2043129,-0.75,-0.56,-0.02,20.02,17.46,-2.08
1777399407984,2043139,-0.78,-0.56,0.02,23.86,15.44,-2.87
1777399407984,2043149,-0.79,-0.56,0.05,25.51,9.34,-4.58
1777399407985,2043159,-0.78,-0.58,0.06,26.86,-0.18,-5.43
1777399407985,2043169,-0.76,-0.58,0.06,28.56,-8.91,-5.68
1777399407985,2043179,-0.73,-0.58,0.06,29.36,-15.08,-6.16
1777399407985,2043189,-0.72,-0.59,0.07,29.17,-18.80,-6.10
1777399407985,2043199,-0.71,-0.59,0.08,29.48,-20.94,-4.58
1777399407985,2043209,-0.71,-0.59,0.09,29.66,-22.28,-1.53
1777399407986,2043229,-0.71,-0.59,0.10,29.48,-18.01,-1.40
1777399407986,2043249,-0.70,-0.60,0.15,26.55,-12.57,-0.49
1777399407986,2043269,-0.71,-0.62,0.19,21.18,-13.00,-0.24
1777399407986,2043289,-0.71,-0.63,0.21,19.17,-19.47,3.30
1777399407986,2043299,-0.72,-0.62,0.21,18.07,-23.25,5.55
1777399407986,2043309,-0.73,-0.62,0.20,16.42,-25.45,8.00
1777399407987,2043319,-0.75,-0.63,0.19,15.26,-25.39,9.89
1777399407987,2043329,-0.77,-0.63,0.19,15.56,-23.80,10.01
1777399407987,2043339,-0.77,-0.63,0.18,16.48,-21.42,8.12
1777399407987,2043349,-0.77,-0.62,0.18,17.88,-18.43,5.98
1777399407987,2043359,-0.76,-0.61,0.20,18.19,-15.63,5.13
1777399407987,2043369,-0.76,-0.62,0.21,16.48,-14.83,6.10
1777399407988,2043379,-0.77,-0.62,0.21,14.53,-15.93,7.51
1777399407988,2043389,-0.78,-0.61,0.21,12.70,-17.40,8.67
1777399407988,2043399,-0.78,-0.61,0.20,10.68,-18.31,9.52
1777399407988,2043409,-0.78,-0.61,0.18,9.09,-18.49,10.25
1777399407988,2043419,-0.78,-0.61,0.16,8.42,-17.33,10.80
1777399407988,2043429,-0.79,-0.61,0.15,8.61,-14.53,10.31
1777399407989,2043439,-0.81,-0.60,0.15,9.03,-11.54,9.09
1777399407989,2043449,-0.81,-0.60,0.16,9.52,-9.34,8.24
1777399407989,2043459,-0.82,-0.60,0.16,9.95,-8.24,7.75
1777399407989,2043469,-0.82,-0.59,0.17,9.70,-8.00,7.20
1777399407989,2043479,-0.81,-0.59,0.16,8.79,-8.30,6.59
1777399407989,2043489,-0.82,-0.59,0.17,8.06,-9.34,6.59
1777399407989,2043499,-0.82,-0.58,0.18,8.06,-11.11,6.84
1777399407990,2043509,-0.83,-0.57,0.17,8.18,-12.76,6.41
1777399407990,2043519,-0.82,-0.56,0.16,8.06,-13.37,6.04
1777399407990,2043529,-0.81,-0.55,0.14,7.63,-11.23,6.23
1777399407990,2043539,-0.82,-0.55,0.14,7.08,-7.39,6.71
1777399407990,2043549,-0.83,-0.55,0.14,7.45,-3.05,6.41
1777399407991,2043559,-0.83,-0.54,0.13,7.75,1.28,3.30
1777399407991,2043579,-0.81,-0.56,0.13,8.54,7.32,3.66
1777399407991,2043599,-0.82,-0.56,0.15,9.64,2.20,5.07
1777399407991,2043619,-0.83,-0.55,0.17,11.41,-5.25,5.49
1777399407991,2043629,-0.82,-0.54,0.18,11.11,-8.48,4.09
1777399407991,2043639,-0.81,-0.54,0.17,10.25,-10.93,2.56
1777399407991,2043649,-0.79,-0.54,0.16,9.77,-12.21,1.34
1777399407992,2043659,-0.78,-0.54,0.16,9.52,-11.96,1.16
1777399407992,2043669,-0.77,-0.55,0.16,8.36,-10.56,1.40
1777399407992,2043679,-0.77,-0.56,0.17,7.02,-9.34,2.26
1777399407992,2043689,-0.77,-0.57,0.17,6.23,-8.30,3.30
1777399407992,2043699,-0.77,-0.57,0.17,5.19,-7.75,4.39
1777399407992,2043709,-0.79,-0.57,0.18,4.21,-7.51,5.80
1777399407992,2043719,-0.79,-0.57,0.18,3.23,-7.81,6.90
1777399407993,2043729,-0.80,-0.56,0.18,1.77,-8.73,7.39
1777399407993,2043739,-0.82,-0.56,0.18,0.49,-9.58,7.51
1777399407993,2043749,-0.83,-0.55,0.18,-0.18,-9.89,6.90
1777399407993,2043759,-0.84,-0.55,0.18,-0.49,-10.44,5.74
1777399407993,2043769,-0.85,-0.54,0.18,-0.24,-11.23,4.15
1777399407993,2043779,-0.84,-0.53,0.18,-0.73,-11.47,1.77
1777399407993,2043789,-0.83,-0.53,0.18,-1.95,-11.54,-0.24
1777399407994,2043799,-0.81,-0.54,0.17,-3.17,-11.23,-1.83
1777399407994,2043809,-0.80,-0.55,0.17,-3.85,-10.62,-2.81
1777399407994,2043819,-0.80,-0.57,0.18,-3.85,-10.50,-2.56
1777399407994,2043829,-0.80,-0.58,0.19,-3.54,-10.99,-2.38
1777399407994,2043839,-0.80,-0.58,0.20,-3.85,-12.15,-2.38
1777399407994,2043849,-0.80,-0.59,0.21,-4.33,-13.67,-1.83
1777399407994,2043859,-0.79,-0.58,0.21,-5.13,-14.28,-1.65
1777399407995,2043869,-0.81,-0.57,0.22,-6.16,-13.73,-1.34
1777399407995,2043879,-0.82,-0.56,0.23,-7.63,-12.39,-1.16
1777399407995,2043889,-0.82,-0.55,0.24,-9.22,-11.05,-1.16
1777399407995,2043899,-0.84,-0.53,0.23,-10.07,-9.09,0.00
1777399407995,2043919,-0.86,-0.50,0.25,-13.31,-3.60,-0.06
1777399407995,2043939,-0.86,-0.52,0.22,-14.28,-5.43,-1.53
1777399407995,2043959,-0.80,-0.54,0.21,-13.24,-10.07,-2.69
1777399407996,2043979,-0.79,-0.52,0.20,-12.15,-12.21,-0.92
1777399407996,2043989,-0.80,-0.51,0.20,-11.72,-10.86,0.98
1777399407996,2043999,-0.81,-0.50,0.20,-11.96,-8.61,2.26
1777399407996,2044009,-0.83,-0.49,0.21,-11.90,-5.62,3.17
1777399407996,2044019,-0.85,-0.48,0.22,-11.78,-2.44,4.39
1777399407996,2044029,-0.88,-0.46,0.24,-12.33,-0.18,5.68
1777399407997,2044039,-0.89,-0.45,0.23,-13.00,0.85,6.35
1777399407997,2044049,-0.89,-0.45,0.22,-14.10,1.46,5.62
1777399407997,2044059,-0.89,-0.45,0.19,-14.59,2.26,5.13
1777399407997,2044069,-0.89,-0.44,0.18,-13.92,3.85,4.76
1777399407997,2044079,-0.87,-0.44,0.16,-13.00,5.49,4.39
1777399407997,2044089,-0.86,-0.43,0.14,-12.02,7.69,4.27
1777399407997,2044099,-0.85,-0.43,0.13,-11.11,10.44,4.33
1777399407998,2044109,-0.85,-0.43,0.13,-9.83,13.12,4.58
1777399407998,2044119,-0.86,-0.44,0.12,-8.42,15.08,3.91
1777399407998,2044129,-0.87,-0.41,0.12,-7.32,15.56,2.32
1777399407998,2044139,-0.86,-0.42,0.10,-5.07,14.34,1.46
1777399407998,2044149,-0.86,-0.42,0.09,-2.56,13.61,0.31
1777399407998,2044159,-0.85,-0.42,0.08,0.43,13.18,-0.98
1777399407998,2044169,-0.84,-0.43,0.08,3.54,13.12,-2.26
1777399407998,2044179,-0.82,-0.43,0.08,6.23,12.51,-2.93
1777399407999,2044189,-0.82,-0.43,0.10,8.00,10.99,-3.42
1777399407999,2044199,-0.81,-0.44,0.10,9.03,8.06,-3.42
1777399407999,2044209,-0.81,-0.45,0.10,9.46,4.33,-3.42
1777399407999,2044219,-0.80,-0.46,0.10,9.95,0.37,-3.36
1777399407999,2044229,-0.81,-0.46,0.10,10.56,-3.78,-2.87
1777399407999,2044239,-0.82,-0.47,0.10,11.60,-7.75,-2.69
1777399408000,2044249,-0.82,-0.47,0.10,12.27,-10.68,-4.39
1777399408000,2044269,-0.81,-0.48,0.11,11.54,-11.60,-5.25
1777399408000,2044289,-0.82,-0.50,0.12,10.44,-11.17,-4.64
1777399408000,2044309,-0.84,-0.50,0.15,8.48,-12.27,-2.56
1777399408000,2044319,-0.85,-0.49,0.15,6.53,-13.61,-2.01
1777399408000,2044329,-0.86,-0.49,0.15,4.70,-13.98,-1.59
1777399408000,2044339,-0.86,-0.49,0.14,2.87,-12.88,-1.77
1777399408000,2044349,-0.87,-0.49,0.14,1.34,-11.05,-2.20
1777399408001,2044359,-0.87,-0.49,0.15,0.43,-9.70,-2.01
1777399408001,2044369,-0.88,-0.49,0.15,-0.55,-9.28,-2.01
1777399408001,2044379,-0.88,-0.49,0.15,-2.14,-9.58,-2.93
1777399408001,2044389,-0.87,-0.49,0.14,-4.33,-10.56,-3.78
1777399408001,2044399,-0.86,-0.50,0.13,-6.10,-11.54,-2.99
1777399408001,2044409,-0.85,-0.50,0.12,-6.96,-12.15,-1.65
1777399408001,2044419,-0.84,-0.50,0.12,-7.57,-12.33,-1.53
1777399408002,2044429,-0.83,-0.50,0.12,-8.30,-12.08,-1.59
1777399408002,2044439,-0.82,-0.50,0.11,-8.91,-11.47,-1.53
1777399408002,2044449,-0.82,-0.50,0.11,-9.22,-10.68,-0.92
1777399408002,2044459,-0.83,-0.50,0.12,-9.40,-9.89,-0.18
1777399408002,2044469,-0.84,-0.50,0.13,-9.52,-10.01,0.24
1777399408002,2044479,-0.85,-0.49,0.13,-10.19,-10.44,0.18
1777399408002,2044489,-0.84,-0.49,0.12,-11.23,-10.38,-0.24
1777399408002,2044499,-0.84,-0.49,0.11,-11.84,-9.52,-0.73
1777399408003,2044509,-0.85,-0.49,0.11,-11.29,-8.00,-1.04
1777399408003,2044519,-0.85,-0.48,0.12,-10.62,-6.47,-0.79
1777399408003,2044529,-0.86,-0.48,0.12,-10.38,-5.43,-0.67
1777399408003,2044539,-0.86,-0.47,0.13,-10.68,-4.82,-0.92
1777399408003,2044549,-0.87,-0.46,0.13,-10.99,-4.52,-0.67
1777399408003,2044559,-0.89,-0.46,0.13,-10.99,-4.33,-0.24
1777399408003,2044569,-0.89,-0.47,0.13,-10.80,-3.78,-0.37
1777399408004,2044579,-0.90,-0.46,0.13,-9.95,-3.23,-0.79
1777399408004,2044589,-0.91,-0.46,0.13,-8.48,-2.62,-0.92
1777399408004,2044609,-0.92,-0.45,0.13,-5.37,-1.16,-3.05
1777399408004,2044629,-0.92,-0.43,0.14,-2.93,-1.71,-5.00
1777399408004,2044649,-0.89,-0.42,0.12,-1.34,-2.14,-7.08
1777399408004,2044669,-0.86,-0.42,0.12,0.98,-0.67,-6.59
1777399408004,2044679,-0.85,-0.42,0.12,1.71,-0.06,-6.77
1777399408004,2044689,-0.85,-0.42,0.11,2.26,-0.12,-6.71
1777399408005,2044699,-0.83,-0.42,0.11,2.99,-0.49,-6.77
1777399408005,2044709,-0.82,-0.42,0.10,3.42,-1.04,-6.77
1777399408005,2044719,-0.82,-0.42,0.10,3.91,-1.28,-6.47
1777399408005,2044729,-0.82,-0.43,0.10,4.88,-1.65,-5.49
1777399408005,2044739,-0.82,-0.43,0.09,6.10,-2.14,-4.52
1777399408005,2044749,-0.82,-0.43,0.09,7.08,-2.32,-3.91
1777399408005,2044759,-0.83,-0.43,0.10,7.81,-2.01,-3.05
1777399408005,2044769,-0.84,-0.43,0.11,8.30,-1.95,-2.50
1777399408006,2044779,-0.85,-0.43,0.11,8.36,-2.44,-2.44
1777399408006,2044789,-0.86,-0.43,0.11,8.48,-3.11,-2.75
1777399408006,2044799,-0.86,-0.43,0.11,8.73,-4.03,-3.23
1777399408006,2044809,-0.86,-0.44,0.11,8.97,-4.76,-3.60
1777399408006,2044819,-0.86,-0.44,0.11,9.52,-5.07,-3.54
1777399408006,2044829,-0.86,-0.45,0.11,9.89,-5.00,-3.17
1777399408006,2044839,-0.86,-0.45,0.11,10.01,-4.94,-2.93
1777399408006,2044849,-0.86,-0.45,0.11,10.07,-5.49,-2.44
1777399408007,2044859,-0.85,-0.46,0.11,10.01,-6.35,-1.95
1777399408007,2044869,-0.85,-0.45,0.11,9.52,-7.08,-2.20
1777399408007,2044879,-0.86,-0.45,0.11,9.16,-7.32,-2.38
1777399408007,2044889,-0.86,-0.46,0.12,8.79,-7.63,-2.01
1777399408007,2044899,-0.86,-0.46,0.12,8.12,-8.18,-1.53
1777399408007,2044909,-0.86,-0.46,0.11,7.51,-8.12,-1.83
1777399408008,2044919,-0.86,-0.46,0.11,6.71,-7.45,-1.53
1777399408008,2044929,-0.87,-0.46,0.12,5.98,-6.59,-1.10
1777399408008,2044939,-0.88,-0.46,0.12,5.31,-6.29,-2.08
1777399408008,2044959,-0.87,-0.47,0.11,3.91,-7.45,-3.05
1777399408008,2044979,-0.86,-0.47,0.11,3.72,-6.96,-2.75
1777399408008,2044999,-0.88,-0.46,0.11,2.14,-5.80,-2.81
1777399408008,2045019,-0.88,-0.45,0.11,0.31,-4.58,-2.62
1777399408008,2045029,-0.89,-0.45,0.11,0.37,-3.85,-2.50
1777399408009,2045039,-0.89,-0.45,0.11,0.31,-3.30,-2.93
1777399408009,2045049,-0.89,-0.45,0.11,0.06,-2.75,-3.78
1777399408009,2045059,-0.88,-0.45,0.11,-0.37,-2.75,-4.70
1777399408009,2045069,-0.88,-0.45,0.11,-0.43,-2.75,-5.19
1777399408009,2045079,-0.88,-0.44,0.11,-0.18,-2.69,-5.13
1777399408009,2045089,-0.88,-0.45,0.11,-0.43,-2.50,-5.19
1777399408009,2045099,-0.88,-0.44,0.11,-0.49,-1.83,-5.13
1777399408009,2045109,-0.88,-0.44,0.11,-0.43,-1.28,-5.13
1777399408010,2045119,-0.88,-0.44,0.12,-0.18,-0.92,-5.19
1777399408010,2045129,-0.89,-0.43,0.12,0.00,-0.73,-5.43
1777399408010,2045139,-0.88,-0.43,0.12,-0.06,-1.10,-6.16
1777399408010,2045149,-0.88,-0.44,0.11,0.37,-1.83,-7.08
1777399408010,2045159,-0.87,-0.43,0.11,1.46,-2.50,-7.69
1777399408010,2045169,-0.86,-0.43,0.11,2.32,-2.99,-7.87
1777399408010,2045179,-0.85,-0.43,0.12,2.62,-3.60,-8.18
1777399408010,2045189,-0.85,-0.44,0.12,2.75,-4.33,-8.30
1777399408011,2045199,-0.85,-0.44,0.13,3.30,-5.37,-7.75
1777399408011,2045209,-0.85,-0.44,0.13,3.72,-5.86,-7.51
1777399408011,2045219,-0.84,-0.44,0.13,3.66,-6.10,-7.75
1777399408011,2045229,-0.85,-0.44,0.14,3.23,-6.04,-7.63
1777399408011,2045239,-0.85,-0.44,0.13,3.11,-5.37,-7.39
1777399408011,2045249,-0.84,-0.44,0.13,2.81,-4.64,-7.45
1777399408011,2045259,-0.84,-0.44,0.13,2.93,-4.03,-7.69
1777399408011,2045269,-0.85,-0.44,0.14,3.60,-4.09,-7.14
1777399408012,2045279,-0.85,-0.44,0.14,4.09,-4.88,-6.65
1777399408012,2045299,-0.84,-0.45,0.13,3.60,-8.42,-5.62
1777399408012,2045319,-0.85,-0.45,0.14,4.64,-7.75,-4.82
1777399408012,2045339,-0.88,-0.45,0.15,3.85,-7.75,-5.74
1777399408012,2045359,-0.87,-0.45,0.14,2.44,-8.79,-6.10
1777399408012,2045369,-0.86,-0.45,0.13,2.14,-8.12,-5.80
1777399408012,2045379,-0.87,-0.45,0.13,1.65,-6.84,-5.43
1777399408012,2045389,-0.86,-0.45,0.13,1.16,-5.62,-5.31
1777399408012,2045399,-0.86,-0.45,0.12,0.98,-4.82,-4.94
1777399408013,2045409,-0.86,-0.45,0.12,1.16,-4.76,-4.46
1777399408013,2045419,-0.87,-0.45,0.12,1.53,-5.07,-3.97
1777399408013,2045429,-0.87,-0.45,0.11,1.89,-5.80,-4.09
1777399408013,2045439,-0.87,-0.45,0.11,2.14,-6.65,-4.21
1777399408013,2045449,-0.87,-0.45,0.11,2.62,-7.14,-4.21
1777399408013,2045459,-0.88,-0.45,0.12,2.62,-7.08,-4.33
1777399408013,2045469,-0.88,-0.45,0.12,2.26,-6.65,-4.82
1777399408013,2045479,-0.88,-0.45,0.11,2.14,-6.23,-5.19
1777399408014,2045489,-0.88,-0.45,0.11,2.20,-5.43,-5.37
1777399408014,2045499,-0.88,-0.45,0.11,2.20,-4.64,-5.62
1777399408014,2045509,-0.88,-0.45,0.11,2.56,-4.33,-5.98
1777399408014,2045519,-0.87,-0.45,0.11,3.11,-4.39,-6.10
1777399408014,2045529,-0.87,-0.45,0.11,3.54,-4.64,-5.62
1777399408014,2045539,-0.88,-0.45,0.12,3.85,-4.82,-5.07
1777399408014,2045549,-0.87,-0.46,0.12,3.85,-5.07,-5.55
1777399408014,2045559,-0.87,-0.46,0.12,4.15,-5.37,-6.41
1777399408015,2045569,-0.87,-0.45,0.12,4.58,-5.13,-6.59
1777399408015,2045579,-0.86,-0.45,0.13,4.58,-4.15,-6.41
1777399408015,2045589,-0.86,-0.44,0.13,3.97,-3.05,-6.59
1777399408015,2045599,-0.86,-0.44,0.13,3.17,-2.14,-6.71
1777399408015,2045609,-0.85,-0.44,0.13,2.50,-1.89,-6.90
1777399408015,2045619,-0.86,-0.45,0.14,2.44,-1.89,-6.59
1777399408015,2045629,-0.86,-0.45,0.14,2.93,-2.56,-5.55
1777399408015,2045649,-0.86,-0.45,0.15,4.03,-5.55,-5.74
1777399408016,2045669,-0.86,-0.45,0.15,4.33,-4.39,-6.16
1777399408016,2045689,-0.87,-0.44,0.16,2.69,-2.32,-7.51
1777399408016,2045709,-0.88,-0.43,0.14,1.40,-1.40,-6.35
1777399408016,2045719,-0.89,-0.43,0.14,1.46,-1.10,-5.43
1777399408016,2045729,-0.89,-0.43,0.13,2.38,-1.16,-5.13
1777399408016,2045739,-0.89,-0.42,0.12,3.30,-1.46,-6.23
1777399408016,2045749,-0.88,-0.42,0.12,3.85,-2.20,-7.08
1777399408016,2045759,-0.87,-0.42,0.11,4.94,-2.81,-7.26
1777399408016,2045769,-0.86,-0.42,0.10,5.92,-2.99,-6.84
1777399408017,2045779,-0.87,-0.42,0.10,6.90,-2.56,-5.55
1777399408017,2045789,-0.87,-0.41,0.10,7.81,-1.59,-4.76
1777399408017,2045799,-0.88,-0.41,0.10,8.12,-0.37,-4.64
1777399408017,2045809,-0.88,-0.42,0.11,8.42,0.24,-4.46
1777399408017,2045819,-0.89,-0.42,0.11,8.91,0.37,-4.46
1777399408017,2045829,-0.89,-0.42,0.11,9.58,0.31,-4.70
1777399408017,2045839,-0.89,-0.43,0.11,10.13,0.24,-5.43
1777399408018,2045849,-0.88,-0.44,0.11,10.62,-0.37,-6.04
1777399408018,2045859,-0.87,-0.45,0.10,11.41,-0.85,-6.41
1777399408018,2045869,-0.88,-0.44,0.11,12.27,-1.22,-6.29
1777399408018,2045879,-0.87,-0.44,0.11,12.63,-0.98,-5.98
1777399408018,2045889,-0.86,-0.44,0.12,12.39,-0.55,-5.86
1777399408018,2045899,-0.87,-0.44,0.12,11.84,0.43,-5.62
1777399408018,2045909,-0.88,-0.44,0.13,11.35,1.40,-5.49
1777399408018,2045919,-0.88,-0.44,0.13,10.93,2.50,-5.80
1777399408019,2045929,-0.88,-0.45,0.13,10.56,3.17,-6.65
1777399408019,2045939,-0.87,-0.46,0.12,10.13,3.97,-7.32
1777399408019,2045949,-0.86,-0.46,0.12,9.77,5.25,-7.87
1777399408019,2045959,-0.87,-0.47,0.12,9.95,6.29,-7.69
1777399408019,2045969,-0.87,-0.47,0.12,10.44,8.00,-7.14
1777399408019,2045989,-0.87,-0.46,0.13,8.97,21.73,-5.92
1777399408019,2046009,-0.87,-0.46,0.13,3.48,27.40,-5.92
1777399408019,2046029,-0.84,-0.46,0.10,-0.31,28.75,-5.07
1777399408019,2046049,-0.84,-0.46,0.07,-1.89,27.77,-3.05
1777399408020,2046059,-0.84,-0.46,0.05,-1.95,26.12,-2.87
1777399408020,2046069,-0.85,-0.46,0.05,-1.59,23.80,-3.30
1777399408020,2046079,-0.85,-0.46,0.05,-0.92,20.81,-3.78
1777399408020,2046089,-0.85,-0.45,0.04,0.00,16.85,-3.85
1777399408020,2046099,-0.86,-0.45,0.04,0.98,12.57,-3.72
1777399408020,2046109,-0.86,-0.44,0.04,1.71,8.54,-3.11
1777399408020,2046119,-0.87,-0.44,0.04,2.08,4.94,-2.87
1777399408020,2046129,-0.87,-0.44,0.04,1.83,1.04,-3.91
1777399408020,2046139,-0.87,-0.45,0.03,1.46,-2.56,-5.19
1777399408021,2046149,-0.86,-0.45,0.02,1.89,-4.76,-5.92
1777399408021,2046159,-0.85,-0.45,0.02,2.75,-5.13,-6.16
1777399408021,2046169,-0.84,-0.45,0.02,2.99,-4.76,-6.04
1777399408021,2046179,-0.83,-0.46,0.01,2.93,-4.39,-5.49
1777399408021,2046189,-0.84,-0.46,0.02,2.93,-3.60,-4.64
1777399408021,2046199,-0.85,-0.47,0.03,2.69,-2.99,-3.66
1777399408021,2046209,-0.85,-0.48,0.03,2.38,-3.66,-2.81
1777399408021,2046219,-0.86,-0.48,0.04,2.14,-4.70,-2.69
1777399408021,2046229,-0.86,-0.48,0.03,1.83,-5.62,-3.11
1777399408022,2046239,-0.86,-0.49,0.03,1.65,-6.29,-3.42
1777399408022,2046249,-0.86,-0.49,0.04,1.65,-6.71,-3.17
1777399408022,2046259,-0.88,-0.50,0.04,1.77,-7.02,-2.69
1777399408022,2046269,-0.89,-0.49,0.03,1.22,-7.26,-3.23
1777399408022,2046279,-0.90,-0.49,0.01,0.18,-6.47,-4.03
1777399408022,2046289,-0.91,-0.48,0.01,-0.37,-4.09,-3.78
1777399408022,2046299,-0.93,-0.49,-0.00,-0.49,-0.79,-3.48
1777399408022,2046309,-0.95,-0.48,-0.00,-0.55,2.32,-4.27
1777399408022,2046319,-0.96,-0.48,-0.00,-0.67,4.27,-8.79
1777399408037,2046339,-0.99,-0.47,0.02,2.01,0.55,-13.31
1777399408057,2046359,-1.01,-0.44,-0.01,3.05,-0.49,-20.57
1777399408077,2046379,-1.00,-0.45,-0.03,7.32,7.75,-29.42
1777399408097,2046399,-0.98,-0.43,-0.00,14.89,16.11,-40.04
1777399408107,2046409,-0.94,-0.40,0.04,15.93,16.48,-43.95
1777399408117,2046419,-0.91,-0.40,0.04,14.83,13.06,-44.37
1777399408127,2046429,-0.87,-0.43,0.03,14.71,8.79,-44.43
1777399408137,2046439,-0.86,-0.40,0.04,17.33,5.49,-45.96
1777399408147,2046449,-0.85,-0.38,0.05,21.06,3.17,-46.81
1777399408157,2046459,-0.83,-0.42,0.10,22.89,0.06,-47.24
1777399408167,2046469,-0.84,-0.36,0.11,24.78,-5.68,-49.62
1777399408177,2046479,-0.82,-0.38,0.10,26.25,-10.19,-52.37
1777399408187,2046489,-0.79,-0.43,0.10,28.87,-10.13,-54.93
1777399408197,2046499,-0.80,-0.43,0.09,35.28,-6.10,-57.98
1777399408207,2046509,-0.77,-0.45,0.15,41.32,-1.16,-59.75
1777399408217,2046519,-0.76,-0.36,0.18,45.04,2.20,-61.46
1777399408227,2046529,-0.72,-0.32,0.20,40.89,2.69,-60.67
1777399408237,2046539,-0.70,-0.38,0.17,32.65,0.92,-58.17
1777399408247,2046549,-0.66,-0.43,0.10,27.59,-0.31,-57.01
1777399408260,2046559,-0.63,-0.46,0.05,30.64,2.56,-56.95
1777399408267,2046569,-0.59,-0.45,0.04,41.69,5.98,-55.97
1777399408277,2046579,-0.54,-0.50,0.03,50.11,6.71,-52.49
1777399408287,2046589,-0.53,-0.52,0.05,53.22,6.41,-50.11
1777399408297,2046599,-0.51,-0.50,0.07,55.79,1.89,-46.75
1777399408307,2046609,-0.49,-0.50,0.06,54.14,-4.64,-42.05
1777399408317,2046619,-0.50,-0.52,0.01,50.17,-9.03,-37.78
1777399408327,2046629,-0.52,-0.51,-0.01,47.67,-9.95,-34.18
1777399408337,2046639,-0.55,-0.54,-0.06,46.63,-9.70,-29.42
1777399408347,2046649,-0.56,-0.57,-0.14,45.23,-8.67,-26.98
1777399408357,2046659,-0.57,-0.59,-0.20,48.22,-6.29,-24.72
1777399408377,2046679,-0.67,-0.63,-0.21,69.34,-18.43,-8.73
1777399408397,2046699,-0.73,-0.58,-0.20,77.15,-34.55,4.39
1777399408417,2046719,-0.98,-0.60,-0.30,54.87,-6.53,32.41
1777399408437,2046739,-1.45,-0.82,-0.41,38.70,34.30,41.69
1777399408447,2046749,-1.55,-0.95,-0.35,46.69,36.62,39.18
1777399408457,2046759,-1.60,-1.19,-0.31,45.04,16.72,43.15
1777399408467,2046769,-1.55,-1.63,-0.43,26.98,-22.16,50.29
1777399408477,2046779,-1.45,-2.24,-0.54,-0.61,-59.63,62.81
1777399408487,2046789,-1.34,-3.12,-0.71,-45.41,-79.10,89.78
1777399408497,2046799,-1.25,-4.00,-0.82,-118.71,-63.17,140.62
1777399408507,2046809,-1.24,-4.00,-0.70,-219.48,-3.48,208.92
1777399408517,2046819,-1.33,-4.00,-0.07,-305.24,74.83,261.05
1777399408527,2046829,-1.42,-4.00,1.30,-333.13,130.49,261.41
1777399408537,2046839,-1.34,-4.00,3.30,-325.26,133.24,221.62
1777399408547,2046849,-0.91,-4.00,4.00,-331.67,103.09,169.86
1777399408557,2046859,-0.10,-4.00,4.00,-396.67,83.56,125.31
1777399408567,2046869,0.81,-4.00,4.00,-529.42,97.23,117.80
1777399408577,2046879,1.43,-2.82,4.00,-650.45,148.93,160.40
1777399408587,2046889,1.33,-1.13,4.00,-733.46,215.15,238.16
1777399408597,2046899,0.74,-0.08,4.00,-794.43,242.98,322.14
1777399408607,2046909,0.42,1.19,4.00,-815.67,239.87,367.07
1777399408617,2046919,0.78,2.20,4.00,-824.95,253.54,353.88
1777399408627,2046929,1.17,2.53,4.00,-820.13,319.70,286.13
1777399408637,2046939,1.30,2.70,4.00,-770.20,375.31,211.36
1777399408647,2046949,1.20,3.04,3.67,-679.38,348.14,159.36
1777399408657,2046959,1.11,3.38,2.65,-574.52,264.77,133.36
1777399408667,2046969,1.05,3.48,1.77,-459.78,194.89,100.52
1777399408677,2046979,0.77,3.80,1.23,-338.44,172.73,47.42
1777399408687,2046989,0.39,3.77,1.13,-238.77,157.29,5.49
1777399408697,2046999,0.20,3.73,1.21,-161.93,111.21,-40.65
1777399408707,2047009,0.24,3.87,1.23,-107.73,42.60,-137.39
1777399408727,2047029,0.55,3.45,0.78,-49.87,-48.52,-130.13
1777399408747,2047049,0.04,2.60,0.24,9.03,6.23,-87.22
1777399408767,2047069,-0.42,2.26,0.09,54.81,24.48,-55.48
1777399408790,2047089,-0.90,1.72,-0.07,47.79,-41.63,-65.73
1777399408797,2047099,-0.90,1.50,-0.35,55.79,-80.51,-80.44
1777399408807,2047109,-1.01,1.21,-0.21,78.43,-92.96,-88.01
1777399408817,2047119,-1.04,1.19,-0.31,115.17,-93.57,-85.88
1777399408827,2047129,-0.97,1.05,-0.29,139.83,-73.85,-74.65
1777399408837,2047139,-1.19,0.86,0.07,155.58,-53.22,-61.40
1777399408847,2047149,-1.25,0.84,-0.07,162.54,-46.57,-54.63
1777399408857,2047159,-1.27,0.73,0.05,157.47,-32.47,-53.59
1777399408867,2047169,-1.25,0.64,0.03,152.65,-26.06,-55.42
1777399408877,2047179,-1.19,0.48,-0.02,143.98,-25.27,-57.92
1777399408887,2047189,-1.12,0.34,-0.05,136.11,-28.26,-61.40
1777399408897,2047199,-1.03,0.20,-0.15,136.72,-34.73,-64.15
1777399408907,2047209,-0.97,0.11,-0.17,143.25,-38.76,-67.93
1777399408917,2047219,-0.91,0.09,-0.19,154.05,-42.79,-71.04
1777399408927,2047229,-0.84,0.07,-0.23,169.13,-47.30,-69.95
1777399408937,2047239,-0.79,0.08,-0.25,185.06,-45.96,-66.83
1777399408947,2047249,-0.78,0.07,-0.29,202.45,-35.22,-61.83
1777399408957,2047259,-0.81,-0.01,-0.28,213.62,-15.26,-58.23
1777399408967,2047269,-0.89,-0.14,-0.24,213.07,2.38,-60.18
1777399408977,2047279,-0.93,-0.28,-0.24,205.51,7.08,-67.08
