host_time_ms,arduino_time_ms,ax,ay,az,gx,gy,gz
1777399447586,2078719,-1.60,0.31,-0.39,117.98,-22.83,-6.96
1777399447586,2078729,-1.71,0.23,-0.32,133.91,-62.62,-37.41
1777399447586,2078739,-1.53,0.31,-0.28,152.10,-107.42,-83.07
1777399447586,2078749,-1.20,0.34,-0.27,163.33,-133.54,-115.30
1777399447587,2078759,-0.96,0.22,-0.25,165.22,-130.37,-122.13
1777399447587,2078769,-0.89,0.10,-0.15,163.76,-103.70,-114.81
1777399447587,2078779,-0.86,0.02,-0.15,155.03,-75.44,-88.01
1777399447588,2078799,-0.84,-0.02,-0.42,130.25,-13.55,-60.36
1777399447588,2078819,-1.00,-0.04,-0.48,140.08,23.19,-65.12
1777399447588,2078839,-1.18,-0.07,-0.55,142.09,-11.78,-104.06
1777399447588,2078859,-0.86,-0.00,-0.56,154.05,-63.72,-134.09
1777399447589,2078869,-0.67,0.02,-0.55,156.74,-76.97,-138.98
1777399447589,2078879,-0.51,0.10,-0.59,159.24,-75.50,-135.80
1777399447590,2078889,-0.44,0.15,-0.61,162.23,-56.40,-121.28
1777399447590,2078899,-0.44,0.13,-0.65,165.34,-24.35,-101.62
1777399447590,2078909,-0.53,0.04,-0.69,175.17,10.80,-86.24
1777399447591,2078919,-0.65,-0.05,-0.65,191.35,44.07,-80.87
1777399447591,2078929,-0.79,-0.10,-0.49,206.24,62.19,-82.58
1777399447591,2078939,-0.84,-0.11,-0.35,214.78,52.31,-85.21
1777399447592,2078949,-0.81,-0.10,-0.27,212.22,20.75,-87.71
1777399447592,2078959,-0.69,-0.18,-0.28,201.29,-15.32,-86.55
1777399447592,2078969,-0.56,-0.24,-0.32,188.54,-42.48,-81.36
1777399447592,2078979,-0.49,-0.27,-0.36,178.28,-56.21,-71.41
1777399447593,2078989,-0.45,-0.31,-0.42,168.52,-55.85,-59.20
1777399447593,2078999,-0.49,-0.40,-0.51,163.27,-41.56,-49.44
1777399447593,2079009,-0.59,-0.50,-0.47,167.11,-17.21,-40.95
1777399447593,2079019,-0.75,-0.52,-0.37,176.03,2.62,-37.78
1777399447594,2079029,-0.93,-0.56,-0.17,179.81,11.23,-41.14
1777399447594,2079039,-1.05,-0.61,-0.00,173.46,-1.71,-48.95
1777399447594,2079049,-1.04,-0.64,0.06,161.19,-34.00,-58.78
1777399447595,2079059,-0.95,-0.64,0.05,146.30,-73.97,-65.43
1777399447595,2079069,-0.78,-0.68,-0.03,131.96,-106.02,-65.80
1777399447595,2079079,-0.60,-0.69,-0.13,119.81,-116.33,-62.68
1777399447595,2079089,-0.48,-0.64,-0.21,110.60,-100.16,-55.11
1777399447596,2079099,-0.49,-0.60,-0.22,101.50,-63.72,-42.18
1777399447596,2079109,-0.59,-0.60,-0.16,89.29,-19.90,-28.02
1777399447596,2079119,-0.74,-0.63,-0.12,76.23,14.53,-16.54
1777399447596,2079129,-0.83,-0.65,-0.07,63.96,33.14,-10.50
1777399447597,2079149,-0.99,-0.70,-0.06,53.83,-5.31,-20.32
1777399447597,2079169,-0.81,-0.69,-0.22,62.56,-32.53,-29.72
1777399447597,2079189,-0.79,-0.67,-0.24,79.96,-28.08,-39.00
1777399447598,2079209,-0.80,-0.63,-0.11,93.87,-3.78,-47.36
1777399447598,2079219,-0.81,-0.60,-0.01,92.53,1.40,-47.91
1777399447598,2079229,-0.79,-0.58,0.06,85.51,-3.17,-44.01
1777399447598,2079239,-0.77,-0.58,0.10,74.71,-14.28,-37.72
1777399447599,2079249,-0.75,-0.56,0.13,63.60,-28.56,-30.76
1777399447599,2079259,-0.71,-0.57,0.16,53.41,-42.72,-22.28
1777399447599,2079269,-0.67,-0.62,0.09,42.11,-54.50,-14.40
1777399447599,2079279,-0.64,-0.62,-0.03,33.81,-56.64,-10.13
1777399447600,2079289,-0.63,-0.64,-0.11,29.11,-43.58,-7.20
1777399447600,2079299,-0.67,-0.67,-0.16,29.05,-20.45,-5.43
1777399447600,2079309,-0.76,-0.70,-0.14,32.71,5.43,-8.30
1777399447600,2079319,-0.80,-0.71,-0.08,37.66,23.62,-14.89
1777399447600,2079329,-0.85,-0.70,-0.02,41.93,27.71,-20.94
1777399447601,2079339,-0.86,-0.73,0.01,42.66,18.86,-24.23
1777399447601,2079349,-0.81,-0.73,0.01,41.99,2.75,-26.12
1777399447601,2079359,-0.74,-0.71,-0.00,40.59,-13.00,-26.37
1777399447601,2079369,-0.68,-0.69,0.03,37.84,-24.23,-22.58
1777399447601,2079379,-0.65,-0.67,0.08,33.57,-33.20,-15.26
1777399447602,2079389,-0.65,-0.65,0.10,27.71,-39.67,-8.30
1777399447602,2079399,-0.67,-0.66,0.09,22.34,-41.93,-4.58
1777399447602,2079409,-0.70,-0.70,0.07,20.08,-38.33,-4.52
1777399447602,2079419,-0.72,-0.72,0.07,21.30,-30.76,-8.54
1777399447602,2079429,-0.74,-0.71,0.07,26.06,-22.64,-13.79
1777399447603,2079439,-0.76,-0.72,0.07,32.47,-16.48,-18.37
1777399447603,2079449,-0.74,-0.72,0.08,38.02,-12.15,-22.77
1777399447603,2079459,-0.71,-0.66,0.17,38.51,-11.96,-25.09
1777399447603,2079469,-0.67,-0.65,0.16,36.19,-19.10,-22.28
1777399447603,2079489,-0.59,-0.66,0.18,24.17,-53.89,-6.41
1777399447604,2079509,-0.54,-0.68,0.12,21.42,-66.35,-2.32
1777399447604,2079529,-0.50,-0.66,0.15,23.38,-49.50,1.83
1777399447604,2079549,-0.72,-0.64,0.18,13.61,-47.79,3.30
1777399447604,2079559,-0.72,-0.72,0.22,14.16,-49.99,-0.73
1777399447604,2079569,-0.72,-0.76,0.33,12.33,-49.26,-5.92
1777399447605,2079579,-0.69,-0.79,0.32,11.54,-59.45,-9.22
1777399447605,2079589,-0.64,-0.76,0.20,16.05,-68.85,-12.33
1777399447605,2079599,-0.59,-0.70,0.17,20.02,-66.41,-13.73
1777399447605,2079609,-0.55,-0.65,0.22,21.67,-57.37,-10.80
1777399447606,2079619,-0.47,-0.58,0.60,14.53,-51.39,-2.32
1777399447606,2079629,-0.54,-0.73,0.39,-5.68,-62.99,11.54
1777399447606,2079639,-0.59,-0.96,0.11,-7.81,-74.58,19.96
1777399447606,2079649,-0.65,-1.04,0.01,3.36,-71.90,12.63
1777399447606,2079659,-0.71,-0.91,0.03,20.08,-61.04,-2.87
1777399447607,2079669,-0.75,-0.70,0.19,28.20,-54.14,-14.28
1777399447607,2079679,-0.77,-0.59,0.32,34.48,-60.55,-15.81
1777399447607,2079689,-0.75,-0.58,0.32,43.27,-76.66,-12.21
1777399447607,2079699,-0.69,-0.60,0.25,49.68,-88.87,-10.56
1777399447607,2079709,-0.66,-0.59,0.18,54.99,-87.77,-10.44
1777399447607,2079719,-0.62,-0.73,0.18,63.11,-76.97,-9.40
1777399447608,2079729,-0.63,-0.76,0.19,77.15,-63.90,-14.77
1777399447608,2079739,-0.63,-0.71,0.29,88.75,-48.65,-22.95
1777399447608,2079749,-0.65,-0.63,0.41,88.99,-36.07,-28.75
1777399447608,2079759,-0.59,-0.65,0.47,89.42,-31.31,-26.86
1777399447608,2079769,-0.74,0.39,0.13,95.03,-30.27,-20.75
1777399447608,2079779,-0.54,-0.70,0.46,85.82,-12.76,13.73
1777399447609,2079789,-0.73,-0.11,0.42,49.68,-1.89,23.13
1777399447609,2079799,-0.67,-0.77,0.80,46.69,-9.28,28.56
1777399447609,2079809,-0.60,-0.73,0.55,54.26,-30.21,12.88
1777399447609,2079819,-0.63,-0.82,0.19,64.09,-34.61,-24.23
1777399447609,2079839,-0.78,-0.45,0.77,102.60,-4.03,-39.73
1777399447609,2079859,-0.79,-0.45,0.57,101.68,-21.61,-21.30
1777399447610,2079879,-0.71,-0.44,0.56,105.16,-25.15,-11.23
1777399447610,2079899,-0.68,-0.48,0.62,75.62,-4.03,1.04
1777399447610,2079909,-0.67,-0.58,0.71,67.87,4.76,4.58
1777399447610,2079919,-0.67,-0.66,0.67,65.06,9.09,6.41
1777399447610,2079929,-0.72,-0.64,0.68,66.10,11.66,3.85
1777399447610,2079939,-0.65,-0.37,0.55,62.50,10.50,1.89
1777399447611,2079949,-0.74,-0.49,0.55,36.01,11.11,0.24
1777399447611,2079959,-0.59,-0.44,0.48,26.25,-3.11,11.47
1777399447611,2079969,-0.55,-0.46,0.38,20.81,-18.49,33.69
1777399447611,2079979,0.51,-0.54,0.02,10.74,-28.32,33.63
1777399447611,2079989,-0.46,-0.38,0.11,-41.93,-14.40,-48.65
1777399447612,2079999,-0.88,-0.43,0.52,-117.80,3.42,-102.78
1777399447612,2080009,-0.87,-0.47,0.70,-132.93,-17.52,-118.59
1777399447612,2080019,-0.77,-0.39,0.65,-104.92,-46.39,-101.50
1777399447612,2080029,-0.70,-0.36,0.57,-72.20,-68.12,-76.60
1777399447612,2080039,-0.58,-0.48,0.53,-50.05,-71.29,-58.47
1777399447612,2080049,-0.49,-0.57,0.51,-35.10,-62.62,-55.66
1777399447613,2080059,-0.49,-0.60,0.54,-24.96,-51.51,-58.23
1777399447613,2080069,-0.51,-0.64,0.58,-20.39,-48.03,-57.86
1777399447613,2080079,-0.49,-0.65,0.57,-18.25,-53.83,-54.08
1777399447613,2080089,-0.48,-0.62,0.56,-18.19,-60.18,-51.39
1777399447613,2080099,-0.48,-0.60,0.59,-24.48,-64.21,-52.80
1777399447613,2080109,-0.51,-0.59,0.61,-37.96,-67.63,-60.79
1777399447614,2080119,-0.53,-0.60,0.66,-53.53,-67.93,-73.36
1777399447614,2080129,-0.54,-0.62,0.68,-65.25,-64.39,-86.79
1777399447614,2080139,-0.55,-0.64,0.70,-67.08,-56.88,-97.53
1777399447614,2080149,-0.54,-0.65,0.67,-58.65,-46.20,-102.23
1777399447614,2080159,-0.51,-0.65,0.64,-41.87,-33.57,-98.69
1777399447614,2080169,-0.49,-0.66,0.59,-21.91,-6.41,-71.78
1777399447615,2080189,-0.44,-0.73,0.56,8.85,-25.27,-46.20
1777399447615,2080209,-0.35,-0.80,0.61,4.39,-46.08,-43.27
1777399447615,2080229,-0.34,-0.85,0.64,0.00,-45.59,-42.11
1777399447615,2080239,-0.32,-0.84,0.66,1.77,-38.88,-39.73
1777399447615,2080249,-0.31,-0.82,0.66,6.59,-31.80,-34.24
1777399447616,2080259,-0.30,-0.78,0.65,14.04,-24.90,-26.49
1777399447616,2080269,-0.30,-0.75,0.64,20.32,-19.65,-18.43
1777399447616,2080279,-0.31,-0.73,0.62,23.62,-16.24,-11.47
1777399447616,2080289,-0.28,-0.71,0.58,26.12,-13.79,-7.57
1777399447616,2080299,-0.25,-0.69,0.53,28.56,-11.41,-5.31
1777399447616,2080309,-0.25,-0.73,0.45,34.00,-8.73,-3.42
1777399447617,2080319,-0.33,-0.63,0.51,44.86,-8.67,-5.49
1777399447617,2080329,-0.40,-0.67,0.79,26.25,-31.13,-18.86
1777399447617,2080339,-0.42,-0.87,0.93,-10.74,-73.18,-48.58
1777399447617,2080349,-0.44,-0.98,0.93,-29.36,-99.67,-82.03
1777399447617,2080359,-0.42,-0.94,0.85,-25.70,-96.98,-97.35
1777399447617,2080369,-0.35,-0.90,0.82,-13.37,-75.87,-86.06
1777399447617,2080379,-0.35,-0.89,0.83,0.12,-44.37,-57.80
1777399447618,2080389,-0.23,-0.85,0.75,20.39,-7.45,-22.16
1777399447618,2080399,-0.19,-0.76,0.67,36.13,25.70,-0.12
1777399447618,2080409,-0.20,-0.73,0.61,44.56,42.60,5.74
1777399447618,2080419,-0.18,-0.71,0.55,49.87,40.34,3.66
1777399447618,2080429,-0.17,-0.69,0.52,50.72,26.73,0.31
1777399447618,2080439,-0.16,-0.69,0.53,49.01,9.28,-2.26
1777399447619,2080449,-0.16,-0.72,0.56,47.42,-7.81,-4.21
1777399447619,2080459,-0.19,-0.76,0.63,46.51,-21.48,-4.76
1777399447619,2080469,-0.22,-0.74,0.70,47.42,-28.63,-2.01
1777399447619,2080479,-0.24,-0.73,0.74,46.63,-29.36,3.91
1777399447619,2080489,-0.24,-0.71,0.76,44.25,-23.38,5.74
1777399447619,2080499,-0.24,-0.67,0.74,43.03,-12.39,2.32
1777399447620,2080509,-0.25,-0.65,0.71,42.72,-0.98,-4.15
1777399447620,2080529,-0.26,-0.65,0.67,52.06,9.64,-2.81
1777399447620,2080549,-0.31,-0.64,0.65,68.36,4.21,8.06
1777399447620,2080569,-0.23,-0.68,0.66,72.33,0.37,9.03
1777399447620,2080589,-0.29,-0.63,0.83,56.03,-15.38,-2.20
1777399447620,2080599,-0.26,-0.59,0.84,41.20,-31.68,-6.41
1777399447620,2080609,-0.25,-0.58,0.83,29.60,-38.70,-8.54
1777399447621,2080619,-0.22,-0.59,0.85,20.87,-31.74,-11.17
1777399447621,2080629,-0.21,-0.57,0.85,15.56,-16.97,-13.24
1777399447621,2080639,-0.19,-0.56,0.84,9.16,-1.89,-13.85
1777399447621,2080649,-0.21,-0.57,0.80,3.11,9.83,-14.40
1777399447621,2080659,-0.22,-0.58,0.77,1.46,16.91,-15.20
1777399447621,2080669,-0.22,-0.56,0.75,1.40,17.64,-15.56
1777399447622,2080679,-0.21,-0.57,0.76,1.34,14.04,-14.71
1777399447622,2080689,-0.23,-0.57,0.78,1.83,7.08,-11.47
1777399447622,2080699,-0.22,-0.55,0.78,2.08,-1.10,-6.23
1777399447622,2080709,-0.23,-0.59,0.80,-2.14,-8.36,-2.62
1777399447622,2080719,-0.21,-0.58,0.78,-2.75,-12.88,-2.93
1777399447622,2080729,-0.19,-0.58,0.78,-4.03,-14.04,-4.03
1777399447622,2080739,-0.20,-0.59,0.79,-3.91,-12.45,-3.36
1777399447623,2080749,-0.21,-0.60,0.79,-1.59,-8.97,-0.55
1777399447623,2080759,-0.19,-0.58,0.77,-0.73,-5.37,2.20
1777399447623,2080769,-0.22,-0.58,0.76,-4.09,-3.11,2.93
1777399447623,2080779,-0.24,-0.59,0.76,-4.15,-4.82,1.77
1777399447623,2080789,-0.24,-0.59,0.76,0.12,-7.20,1.22
1777399447623,2080799,-0.25,-0.57,0.76,4.76,-7.20,1.95
1777399447623,2080809,-0.28,-0.53,0.79,7.45,-5.49,2.75
1777399447624,2080819,-0.31,-0.51,0.80,11.66,-5.31,4.64
1777399447624,2080829,-0.29,-0.53,0.78,17.76,-6.71,6.16
1777399447624,2080839,-0.26,-0.55,0.76,20.08,-7.20,4.15
1777399447624,2080849,-0.23,-0.60,0.75,18.07,-6.29,-0.85
1777399447624,2080859,-0.22,-0.62,0.76,13.92,-5.25,-8.30
1777399447624,2080879,-0.25,-0.62,0.79,4.39,-8.24,-5.55
1777399447624,2080899,-0.23,-0.59,0.76,11.23,-3.60,0.12
1777399447625,2080919,-0.23,-0.57,0.75,21.36,-5.80,3.23
1777399447625,2080929,-0.23,-0.55,0.77,24.48,-9.46,4.09
1777399447625,2080939,-0.24,-0.54,0.78,27.16,-13.31,4.03
1777399447625,2080949,-0.23,-0.54,0.77,28.20,-15.32,2.32
1777399447625,2080959,-0.21,-0.56,0.78,23.93,-14.53,-1.04
1777399447625,2080969,-0.22,-0.57,0.79,17.40,-11.78,-5.86
1777399447626,2080979,-0.23,-0.57,0.80,11.35,-9.09,-9.34
1777399447626,2080989,-0.24,-0.56,0.81,7.20,-8.18,-9.03
1777399447626,2080999,-0.24,-0.56,0.81,5.19,-8.42,-6.90
1777399447626,2081009,-0.23,-0.55,0.81,3.36,-8.79,-5.49
1777399447626,2081019,-0.23,-0.55,0.80,1.34,-8.30,-5.31
1777399447626,2081029,-0.23,-0.55,0.80,-0.31,-7.14,-5.68
1777399447626,2081039,-0.24,-0.55,0.80,-0.73,-5.92,-5.19
1777399447626,2081049,-0.25,-0.55,0.81,0.67,-5.86,-4.03
1777399447627,2081059,-0.23,-0.54,0.81,2.08,-5.74,-2.81
1777399447627,2081069,-0.23,-0.54,0.80,2.38,-4.94,-2.69
1777399447627,2081079,-0.24,-0.54,0.80,2.26,-4.03,-4.33
1777399447627,2081089,-0.23,-0.55,0.79,2.93,-3.54,-5.62
1777399447627,2081099,-0.24,-0.55,0.78,4.70,-3.36,-5.13
1777399447627,2081109,-0.24,-0.55,0.78,5.37,-3.91,-4.33
1777399447628,2081119,-0.23,-0.56,0.78,4.27,-4.88,-5.19
1777399447628,2081129,-0.23,-0.56,0.79,2.81,-5.80,-6.59
1777399447628,2081139,-0.24,-0.56,0.80,2.20,-6.41,-6.59
1777399447628,2081149,-0.24,-0.56,0.80,2.81,-6.41,-5.86
1777399447628,2081159,-0.23,-0.55,0.80,3.17,-5.43,-5.37
1777399447628,2081169,-0.23,-0.55,0.79,3.05,-4.15,-5.62
1777399447628,2081179,-0.23,-0.55,0.79,2.50,-3.48,-6.29
1777399447629,2081189,-0.23,-0.55,0.79,2.50,-4.09,-6.41
1777399447629,2081199,-0.23,-0.55,0.79,2.81,-5.31,-6.04
1777399447629,2081219,-0.23,-0.55,0.80,3.66,-6.71,-5.68
1777399447629,2081239,-0.23,-0.55,0.80,3.23,-4.94,-5.80
1777399447629,2081259,-0.24,-0.55,0.79,1.95,-3.78,-5.74
1777399447629,2081279,-0.23,-0.55,0.79,1.71,-4.82,-5.86
1777399447629,2081289,-0.23,-0.55,0.79,1.34,-5.80,-5.80
1777399447629,2081299,-0.23,-0.55,0.80,1.10,-6.47,-6.10
1777399447630,2081309,-0.23,-0.55,0.80,1.40,-6.04,-5.86
1777399447630,2081319,-0.23,-0.56,0.80,2.14,-5.31,-5.25
1777399447630,2081329,-0.23,-0.56,0.81,2.20,-5.07,-5.00
1777399447630,2081339,-0.22,-0.56,0.80,1.46,-4.94,-4.94
1777399447630,2081349,-0.22,-0.55,0.80,1.59,-4.15,-4.52
1777399447630,2081359,-0.23,-0.55,0.80,2.32,-3.48,-3.85
1777399447630,2081369,-0.23,-0.54,0.80,2.69,-3.36,-4.09
1777399447631,2081379,-0.23,-0.55,0.79,2.69,-3.97,-4.64
1777399447631,2081389,-0.22,-0.55,0.80,2.75,-4.52,-4.76
1777399447631,2081399,-0.23,-0.55,0.80,2.14,-5.37,-5.31
1777399447631,2081409,-0.23,-0.54,0.80,1.34,-5.86,-5.62
1777399447631,2081419,-0.23,-0.55,0.80,1.22,-5.19,-5.55
1777399447631,2081429,-0.22,-0.55,0.79,1.77,-4.21,-5.55
1777399447631,2081439,-0.23,-0.54,0.79,2.20,-3.30,-5.37
1777399447631,2081449,-0.24,-0.55,0.80,1.89,-3.72,-5.19
1777399447632,2081459,-0.23,-0.55,0.80,1.10,-5.19,-5.68
1777399447632,2081469,-0.23,-0.55,0.80,1.04,-5.55,-5.62
1777399447632,2081479,-0.23,-0.55,0.80,1.71,-4.82,-5.19
1777399447632,2081489,-0.23,-0.56,0.80,1.40,-4.21,-5.43
1777399447632,2081499,-0.23,-0.56,0.80,0.49,-3.72,-6.53
1777399447632,2081509,-0.23,-0.56,0.79,0.85,-2.99,-6.29
1777399447632,2081519,-0.23,-0.56,0.78,1.95,-2.56,-5.19
1777399447632,2081529,-0.23,-0.56,0.79,3.17,-3.36,-4.52
1777399447633,2081539,-0.23,-0.56,0.79,3.48,-5.62,-4.03
1777399447633,2081549,-0.23,-0.55,0.80,3.17,-6.84,-3.66
1777399447633,2081569,-0.23,-0.54,0.81,3.66,-4.33,-4.33
1777399447633,2081589,-0.23,-0.55,0.80,2.20,-3.78,-5.62
1777399447633,2081609,-0.23,-0.55,0.79,3.48,-4.39,-4.82
1777399447633,2081629,-0.23,-0.55,0.80,2.44,-5.31,-5.13
1777399447633,2081639,-0.23,-0.56,0.81,2.87,-5.37,-3.97
1777399447633,2081649,-0.23,-0.56,0.81,3.23,-5.55,-3.85
1777399447634,2081659,-0.23,-0.55,0.81,2.50,-4.76,-4.46
1777399447634,2081669,-0.23,-0.55,0.81,2.01,-3.78,-4.33
1777399447634,2081679,-0.23,-0.55,0.80,2.38,-3.05,-3.54
1777399447634,2081689,-0.23,-0.55,0.80,3.17,-2.99,-2.69
1777399447634,2081699,-0.23,-0.55,0.79,3.66,-3.36,-2.32
1777399447634,2081709,-0.23,-0.55,0.79,3.72,-3.85,-2.32
1777399447634,2081719,-0.22,-0.55,0.78,3.17,-4.33,-3.05
1777399447634,2081729,-0.23,-0.55,0.79,2.01,-4.64,-3.66
1777399447635,2081739,-0.24,-0.55,0.80,0.98,-5.43,-3.66
1777399447635,2081749,-0.24,-0.55,0.80,1.16,-5.80,-3.60
1777399447635,2081759,-0.24,-0.55,0.80,1.71,-5.25,-3.17
1777399447635,2081769,-0.25,-0.55,0.81,2.14,-4.33,-2.14
1777399447635,2081779,-0.24,-0.55,0.81,3.11,-3.91,-1.46
1777399447635,2081789,-0.23,-0.55,0.81,3.66,-3.42,-1.59
1777399447635,2081799,-0.23,-0.56,0.80,3.60,-2.56,-2.20
1777399447636,2081809,-0.23,-0.56,0.80,3.23,-1.77,-2.44
1777399447636,2081819,-0.23,-0.55,0.80,3.05,-1.53,-2.14
1777399447636,2081829,-0.23,-0.55,0.80,3.30,-2.14,-1.53
1777399447636,2081839,-0.23,-0.55,0.80,4.15,-2.32,-0.55
1777399447636,2081849,-0.23,-0.54,0.80,5.00,-1.71,0.43
1777399447636,2081859,-0.23,-0.54,0.79,5.49,-1.10,0.43
1777399447636,2081869,-0.24,-0.54,0.79,5.49,-1.53,0.31
1777399447637,2081879,-0.24,-0.54,0.79,5.19,-2.50,-0.18
1777399447637,2081889,-0.25,-0.53,0.79,5.25,-2.81,-1.16
1777399447637,2081909,-0.25,-0.53,0.80,5.25,-4.76,-1.83
1777399447637,2081929,-0.25,-0.55,0.81,2.99,-3.48,-4.39
1777399447637,2081949,-0.25,-0.55,0.81,3.91,-2.20,-3.17
1777399447637,2081969,-0.24,-0.55,0.80,6.29,-1.71,-1.16
1777399447637,2081979,-0.25,-0.55,0.81,7.20,-1.22,-0.85
1777399447637,2081989,-0.25,-0.55,0.81,8.42,-0.98,0.24
1777399447638,2081999,-0.25,-0.55,0.81,9.22,-0.67,1.53
1777399447638,2082009,-0.24,-0.54,0.80,9.46,-0.06,2.08
1777399447638,2082019,-0.24,-0.53,0.79,8.97,0.73,1.89
1777399447638,2082029,-0.24,-0.52,0.78,7.87,0.98,1.40
1777399447638,2082039,-0.24,-0.52,0.78,6.53,0.24,0.24
1777399447638,2082049,-0.25,-0.52,0.78,5.37,-1.65,-1.10
1777399447638,2082059,-0.25,-0.52,0.79,3.48,-4.03,-2.69
1777399447638,2082069,-0.26,-0.52,0.79,1.40,-5.68,-4.15
1777399447639,2082079,-0.26,-0.52,0.80,0.18,-6.23,-4.64
1777399447639,2082089,-0.26,-0.53,0.81,0.18,-6.10,-4.94
1777399447639,2082099,-0.26,-0.53,0.81,1.16,-5.37,-4.64
1777399447639,2082109,-0.26,-0.54,0.82,2.62,-4.27,-3.78
1777399447639,2082119,-0.27,-0.54,0.83,3.78,-3.30,-2.75
1777399447639,2082129,-0.26,-0.54,0.82,4.70,-3.05,-1.10
1777399447639,2082139,-0.26,-0.54,0.81,5.43,-2.32,-0.24
1777399447640,2082149,-0.25,-0.53,0.81,5.55,-0.43,-0.49
1777399447640,2082159,-0.25,-0.53,0.80,5.80,1.10,-0.37
1777399447640,2082169,-0.25,-0.53,0.79,5.92,0.85,-0.24
1777399447640,2082179,-0.25,-0.53,0.78,5.25,-0.37,-0.61
1777399447640,2082189,-0.25,-0.53,0.78,4.09,-1.95,-1.95
1777399447640,2082199,-0.26,-0.52,0.78,2.62,-3.36,-3.17
1777399447640,2082209,-0.26,-0.52,0.79,1.71,-4.82,-3.48
1777399447640,2082219,-0.27,-0.52,0.80,1.59,-5.80,-3.60
1777399447641,2082229,-0.28,-0.52,0.81,1.83,-6.35,-3.78
1777399447641,2082239,-0.28,-0.52,0.82,2.44,-6.04,-3.17
1777399447641,2082259,-0.27,-0.53,0.82,6.59,-1.59,-1.71
1777399447641,2082279,-0.25,-0.52,0.80,5.98,-0.92,-1.83
1777399447641,2082299,-0.26,-0.53,0.80,2.99,-2.69,-3.42
1777399447641,2082319,-0.27,-0.53,0.81,3.17,-3.85,-2.99
1777399447641,2082329,-0.27,-0.53,0.82,3.60,-3.48,-2.20
1777399447641,2082339,-0.28,-0.53,0.82,4.46,-2.81,-1.40
1777399447641,2082349,-0.29,-0.53,0.83,5.37,-2.38,-0.31
1777399447642,2082359,-0.28,-0.53,0.83,6.35,-1.65,0.73
1777399447642,2082369,-0.27,-0.52,0.82,7.39,-0.12,1.04
1777399447642,2082379,-0.26,-0.51,0.83,7.75,1.34,2.20
1777399447642,2082389,-0.28,-0.52,0.82,5.00,0.92,3.11
1777399447642,2082399,-0.28,-0.50,0.83,3.66,1.16,1.71
1777399447642,2082409,-0.28,-0.49,0.83,1.95,2.01,0.24
1777399447642,2082419,-0.29,-0.52,0.84,-1.71,2.14,0.00
1777399447642,2082429,-0.29,-0.51,0.83,-3.97,1.95,-1.34
1777399447643,2082439,-0.28,-0.51,0.82,-3.66,4.82,-2.20
1777399447643,2082449,-0.30,-0.53,0.83,-4.21,6.59,-0.98
1777399447643,2082459,-0.30,-0.53,0.82,-2.38,7.51,0.49
1777399447643,2082469,-0.29,-0.53,0.81,-0.43,7.93,2.50
1777399447643,2082479,-0.30,-0.53,0.80,0.85,9.09,4.39
1777399447643,2082489,-0.30,-0.53,0.80,1.28,10.25,5.74
1777399447643,2082499,-0.31,-0.53,0.81,0.98,11.29,6.10
1777399447643,2082509,-0.31,-0.53,0.80,1.59,10.62,6.65
1777399447643,2082519,-0.29,-0.52,0.79,2.14,9.28,7.02
1777399447644,2082529,-0.29,-0.52,0.77,2.32,9.09,6.29
1777399447644,2082539,-0.28,-0.51,0.76,2.62,10.01,4.94
1777399447644,2082549,-0.30,-0.51,0.75,3.54,11.23,4.21
1777399447644,2082559,-0.31,-0.50,0.75,4.76,10.56,4.70
1777399447644,2082569,-0.31,-0.50,0.76,5.43,8.67,5.43
1777399447644,2082579,-0.31,-0.49,0.76,5.86,5.98,5.31
1777399447644,2082599,-0.32,-0.49,0.76,1.40,0.31,-0.92
1777399447645,2082619,-0.32,-0.49,0.75,-1.83,-2.08,-5.62
1777399447645,2082639,-0.32,-0.49,0.76,-1.89,-5.55,-7.93
1777399447645,2082659,-0.33,-0.49,0.77,-2.26,-8.36,-9.77
1777399447645,2082669,-0.33,-0.50,0.79,-3.11,-9.46,-10.38
1777399447645,2082679,-0.34,-0.50,0.81,-3.60,-10.07,-10.44
1777399447645,2082689,-0.34,-0.52,0.82,-3.36,-9.83,-10.01
1777399447645,2082699,-0.34,-0.52,0.83,-2.50,-8.24,-9.52
1777399447645,2082709,-0.33,-0.53,0.82,-2.32,-5.43,-9.16
1777399447646,2082719,-0.33,-0.55,0.82,-2.26,-2.50,-8.91
1777399447646,2082729,-0.33,-0.55,0.80,-2.01,-0.37,-7.69
1777399447646,2082739,-0.32,-0.56,0.79,-1.71,0.85,-5.80
1777399447646,2082749,-0.31,-0.57,0.77,-1.77,1.34,-4.52
1777399447646,2082759,-0.31,-0.57,0.76,-1.71,1.16,-3.66
1777399447646,2082769,-0.31,-0.56,0.76,-2.14,0.06,-2.69
1777399447646,2082779,-0.31,-0.55,0.76,-3.60,-2.01,-2.20
1777399447646,2082789,-0.32,-0.55,0.77,-5.37,-3.97,-2.44
1777399447647,2082799,-0.33,-0.55,0.78,-6.10,-5.13,-2.75
1777399447647,2082809,-0.33,-0.55,0.78,-4.82,-4.94,-2.14
1777399447647,2082819,-0.33,-0.55,0.79,-2.38,-3.30,-0.43
1777399447647,2082829,-0.33,-0.55,0.79,0.12,-1.40,1.65
1777399447647,2082839,-0.33,-0.53,0.78,1.95,-0.18,3.30
1777399447647,2082849,-0.33,-0.53,0.78,2.26,0.18,4.52
1777399447647,2082859,-0.33,-0.53,0.77,1.77,-0.37,5.00
1777399447647,2082869,-0.33,-0.51,0.76,0.92,-2.08,4.39
1777399447647,2082879,-0.33,-0.50,0.77,-0.37,-1.95,3.78
1777399447648,2082889,-0.34,-0.50,0.76,-0.61,-1.28,3.54
1777399447648,2082899,-0.33,-0.49,0.76,-0.92,-1.46,2.99
1777399447648,2082909,-0.35,-0.50,0.76,-1.83,-2.75,1.95
1777399447648,2082919,-0.35,-0.51,0.77,-2.69,-5.55,0.85
1777399447648,2082929,-0.35,-0.51,0.78,-3.30,-6.35,-0.61
1777399447648,2082949,-0.36,-0.53,0.79,-3.42,-1.89,-0.31
1777399447648,2082969,-0.36,-0.55,0.78,-4.70,-2.01,-1.04
1777399447648,2082989,-0.36,-0.54,0.76,-3.91,1.16,0.18
1777399447649,2083009,-0.36,-0.52,0.75,-2.20,-0.31,0.73
1777399447649,2083019,-0.35,-0.52,0.75,-0.73,-1.83,0.24
1777399447649,2083029,-0.35,-0.52,0.75,0.85,-2.08,-0.61
1777399447649,2083039,-0.35,-0.52,0.74,1.83,-1.59,-1.46
1777399447649,2083049,-0.35,-0.52,0.74,2.26,-1.65,-2.20
1777399447649,2083059,-0.35,-0.52,0.75,2.32,-2.75,-2.56
1777399447649,2083069,-0.35,-0.52,0.75,2.26,-4.33,-3.23
1777399447649,2083079,-0.35,-0.52,0.75,1.59,-5.80,-3.72
1777399447649,2083089,-0.35,-0.52,0.75,0.67,-6.71,-4.58
1777399447650,2083099,-0.36,-0.52,0.76,0.12,-6.77,-5.19
1777399447650,2083109,-0.36,-0.52,0.77,0.00,-6.35,-5.19
1777399447650,2083119,-0.36,-0.52,0.77,0.18,-6.35,-5.31
1777399447650,2083129,-0.36,-0.53,0.78,0.00,-6.16,-5.68
1777399447650,2083139,-0.36,-0.53,0.77,-0.61,-5.86,-5.80
1777399447650,2083149,-0.36,-0.54,0.77,-0.92,-4.94,-5.62
1777399447650,2083159,-0.35,-0.54,0.76,-0.49,-3.54,-5.43
1777399447651,2083169,-0.35,-0.55,0.76,0.31,-2.44,-4.88
1777399447651,2083179,-0.35,-0.55,0.76,1.10,-2.81,-3.85
1777399447651,2083189,-0.35,-0.55,0.75,1.59,-3.78,-2.87
1777399447651,2083199,-0.34,-0.55,0.75,1.59,-4.64,-2.20
1777399447651,2083209,-0.34,-0.55,0.76,1.22,-5.07,-2.01
1777399447651,2083219,-0.35,-0.54,0.76,1.10,-5.19,-1.83
1777399447651,2083229,-0.36,-0.53,0.76,0.43,-5.25,-1.46
1777399447651,2083239,-0.36,-0.53,0.77,-0.49,-5.19,-1.83
1777399447652,2083249,-0.37,-0.53,0.77,-0.98,-4.94,-2.38
1777399447652,2083259,-0.37,-0.53,0.77,-0.85,-4.03,-2.38
1777399447652,2083269,-0.37,-0.54,0.76,-0.43,-2.75,-2.14
1777399447652,2083289,-0.36,-0.54,0.75,1.10,-1.16,-2.93
1777399447652,2083309,-0.36,-0.53,0.74,2.75,-2.50,-2.93
1777399447652,2083329,-0.36,-0.52,0.74,4.03,-4.64,-4.09
1777399447652,2083349,-0.36,-0.52,0.75,5.19,-6.65,-5.68
1777399447652,2083359,-0.36,-0.52,0.76,5.07,-7.45,-6.29
1777399447653,2083369,-0.36,-0.52,0.77,4.39,-7.87,-7.26
1777399447653,2083379,-0.36,-0.53,0.77,3.91,-7.39,-8.00
1777399447653,2083389,-0.36,-0.53,0.77,3.54,-6.47,-8.67
1777399447653,2083399,-0.36,-0.54,0.77,3.42,-5.25,-9.03
1777399447653,2083409,-0.36,-0.54,0.76,4.09,-4.52,-8.54
1777399447653,2083419,-0.35,-0.54,0.76,4.82,-3.91,-7.45
1777399447653,2083429,-0.35,-0.55,0.76,4.76,-4.15,-6.90
1777399447653,2083439,-0.35,-0.55,0.76,4.09,-4.82,-6.84
1777399447653,2083449,-0.35,-0.55,0.77,3.48,-5.31,-6.59
1777399447654,2083459,-0.36,-0.56,0.78,3.42,-5.37,-5.31
1777399447654,2083469,-0.36,-0.56,0.78,2.93,-5.31,-4.03
1777399447654,2083479,-0.35,-0.56,0.78,2.08,-4.58,-3.78
1777399447654,2083489,-0.36,-0.56,0.78,1.46,-2.81,-3.36
1777399447654,2083499,-0.36,-0.56,0.77,1.59,-0.43,-2.08
1777399447654,2083509,-0.36,-0.55,0.77,2.14,0.79,-0.43
1777399447654,2083519,-0.36,-0.55,0.77,2.56,0.67,1.16
1777399447654,2083529,-0.37,-0.55,0.77,2.87,0.00,2.32
1777399447654,2083539,-0.37,-0.54,0.77,2.87,-0.24,3.30
1777399447655,2083549,-0.36,-0.54,0.76,2.81,0.49,3.78
1777399447655,2083559,-0.36,-0.53,0.76,2.50,1.77,3.48
1777399447655,2083569,-0.37,-0.53,0.75,1.77,2.56,3.11
1777399447655,2083579,-0.37,-0.52,0.74,1.46,2.56,2.69
1777399447655,2083589,-0.38,-0.51,0.75,1.59,1.89,2.44
1777399447655,2083599,-0.40,-0.51,0.76,1.40,0.31,2.50
1777399447655,2083609,-0.40,-0.52,0.78,1.65,-1.34,2.26
1777399447655,2083619,-0.39,-0.52,0.78,2.62,-1.22,1.89
1777399447655,2083639,-0.39,-0.54,0.81,2.93,5.43,2.01
1777399447656,2083659,-0.38,-0.55,0.79,-0.12,10.44,2.01
1777399447656,2083679,-0.38,-0.54,0.76,3.66,15.69,3.66
1777399447656,2083699,-0.38,-0.52,0.74,8.06,17.40,7.69
1777399447656,2083709,-0.41,-0.52,0.75,7.81,17.70,7.69
1777399447656,2083719,-0.44,-0.52,0.77,6.04,16.17,8.06
1777399447656,2083729,-0.45,-0.51,0.79,3.97,14.65,9.03
1777399447656,2083739,-0.47,-0.52,0.82,-0.18,13.92,9.16
1777399447656,2083749,-0.48,-0.54,0.85,-6.77,13.55,7.87
1777399447656,2083759,-0.48,-0.54,0.87,-15.20,14.95,5.49
1777399447657,2083769,-0.47,-0.55,0.87,-23.07,19.47,3.60
1777399447657,2083779,-0.46,-0.56,0.85,-27.59,27.28,3.17
1777399447657,2083789,-0.46,-0.58,0.83,-26.06,36.74,5.13
1777399447657,2083799,-0.44,-0.58,0.78,-20.81,45.23,9.58
1777399447657,2083809,-0.45,-0.56,0.74,-16.36,51.09,13.49
1777399447657,2083819,-0.45,-0.56,0.70,-14.77,53.83,15.32
1777399447657,2083829,-0.47,-0.56,0.73,-14.77,56.34,14.59
1777399447657,2083839,-0.50,-0.58,0.73,-13.85,54.57,13.06
1777399447657,2083849,-0.49,-0.59,0.71,-12.63,48.65,10.13
1777399447658,2083859,-0.49,-0.60,0.68,-12.39,47.55,9.22
1777399447658,2083869,-0.51,-0.62,0.63,-12.94,51.88,10.86
1777399447658,2083879,-0.54,-0.62,0.59,-13.49,56.76,14.77
1777399447658,2083889,-0.56,-0.59,0.57,-13.37,58.53,20.39
1777399447658,2083899,-0.59,-0.56,0.57,-12.57,56.88,26.31
1777399447658,2083909,-0.61,-0.54,0.55,-10.19,51.21,30.82
1777399447658,2083919,-0.61,-0.51,0.53,-6.53,44.37,31.62
1777399447658,2083929,-0.74,-0.52,0.57,-6.10,39.55,30.88
1777399447658,2083939,-0.78,-0.64,0.62,-10.50,34.61,32.53
1777399447658,2083949,-0.75,-0.59,0.51,3.97,32.47,39.86
1777399447659,2083959,-0.74,-0.56,0.44,18.31,37.54,51.51
1777399447659,2083979,-0.78,-0.56,0.46,25.70,25.33,61.95
1777399447659,2083999,-0.85,-0.49,0.57,45.17,2.14,72.45
1777399447659,2084019,-0.74,-0.47,0.59,60.85,5.07,72.51
1777399447659,2084039,-0.72,-0.48,0.53,68.42,20.39,70.01
1777399447659,2084049,-0.73,-0.48,0.55,66.10,27.16,73.67
1777399447659,2084059,-0.75,-0.47,0.59,61.28,30.09,79.71
1777399447659,2084069,-0.79,-0.43,0.66,59.20,28.50,84.59
1777399447659,2084079,-0.77,-0.34,0.64,61.04,24.48,88.93
1777399447660,2084089,-0.71,-0.24,0.51,56.64,24.72,89.54
1777399447660,2084099,-0.60,-0.23,0.37,36.19,32.04,79.47
1777399447660,2084109,-0.57,-0.22,0.31,6.35,39.37,61.04
1777399447660,2084119,-0.62,-0.16,0.28,-17.70,36.44,48.77
1777399447660,2084129,-0.65,-0.10,0.28,-27.28,18.49,51.21
1777399447660,2084139,-0.71,-0.02,0.30,-20.94,-9.58,60.18
1777399447660,2084149,-0.79,0.04,0.36,-9.34,-41.50,61.04
1777399447660,2084159,-0.83,0.07,0.51,-4.21,-70.19,46.08
1777399447660,2084169,-0.78,0.03,0.56,-6.04,-89.84,19.41
1777399447661,2084179,-0.62,-0.06,0.50,-17.46,-91.86,-7.39
1777399447661,2084189,-0.41,0.03,0.36,-43.95,-77.39,-28.69
1777399447661,2084199,-0.24,-0.21,1.00,-107.73,6.29,-47.12
1777399447661,2084209,-0.96,-0.05,0.59,-117.86,129.52,-81.54
1777399447661,2084219,-0.96,-0.01,0.82,-118.59,129.88,-85.33
1777399447661,2084229,-0.74,-0.29,0.83,-102.42,133.06,-89.97
1777399447661,2084239,-0.98,0.01,0.61,-24.23,178.22,-75.26
1777399447661,2084249,-1.24,-0.41,0.97,-7.57,172.24,-59.81
1777399447662,2084259,-1.22,-0.57,0.92,26.43,112.37,-57.19
1777399447662,2084269,-0.95,-0.44,0.75,62.68,30.15,-57.19
1777399447662,2084279,-0.72,-0.33,0.60,47.91,-49.56,-64.51
1777399447662,2084289,-0.65,-0.26,0.55,27.04,-101.20,-70.37
1777399447662,2084299,-0.68,-0.28,0.48,27.04,-126.28,-63.23
1777399447662,2084309,-0.72,-0.35,0.57,40.16,-152.65,-46.39
1777399447662,2084329,-0.87,0.17,0.65,66.59,-118.47,7.81
1777399447662,2084349,-0.56,-0.56,0.60,-158.33,63.72,-4.21
1777399447662,2084369,-0.95,-0.74,1.11,-75.62,143.92,-2.69
1777399447663,2084389,-0.69,-0.60,1.02,-11.78,89.05,-25.94
1777399447663,2084399,-0.50,-0.48,0.90,-19.53,58.11,-43.33
1777399447663,2084409,-0.41,-0.25,0.73,-26.67,39.00,-49.32
1777399447663,2084419,-0.42,-0.19,0.61,-26.25,30.58,-39.31
1777399447663,2084429,-0.57,-0.17,0.47,-23.38,29.42,-25.15
1777399447663,2084439,-0.64,-0.31,0.26,-23.19,33.26,-20.81
1777399447663,2084449,-0.65,-0.57,0.30,-21.67,52.25,-28.14
1777399447663,2084459,-0.47,-0.73,0.51,-25.51,75.32,-38.88
1777399447663,2084469,-0.31,-0.70,0.73,-27.71,82.34,-44.07
1777399447664,2084479,-0.29,-0.56,0.74,-20.45,69.70,-35.52
1777399447664,2084489,-0.35,-0.49,0.58,-13.73,49.99,-15.63
1777399447664,2084499,-0.42,-0.51,0.51,-18.19,37.29,1.10
1777399447664,2084509,-0.46,-0.55,0.41,-29.36,31.01,8.73
1777399447664,2084519,-0.48,-0.57,0.32,-38.33,28.75,14.04
1777399447664,2084529,-0.56,-0.50,0.34,-38.27,29.72,19.29
1777399447664,2084539,-0.67,-0.42,0.43,-35.58,27.34,23.13
1777399447664,2084549,-0.73,-0.42,0.38,-36.62,18.98,25.63
1777399447664,2084559,-0.73,-0.40,0.33,-34.97,12.51,27.04
1777399447665,2084569,-0.70,-0.56,0.15,-32.84,9.89,29.11
1777399447665,2084579,-0.73,-0.59,0.07,-22.03,19.84,26.49
1777399447665,2084589,-0.77,-0.55,0.17,-15.26,36.56,19.41
1777399447665,2084599,-0.81,-0.51,0.18,-6.41,46.33,15.93
1777399447665,2084609,-0.85,-0.47,0.26,-0.06,51.82,16.17
1777399447665,2084619,-0.99,-0.31,0.30,2.32,50.90,19.23
1777399447665,2084629,-0.94,-0.50,0.40,-2.62,43.09,22.89
1777399447665,2084639,-0.97,-0.48,0.42,-8.48,25.02,16.48
1777399447665,2084649,-0.94,-0.44,0.33,-9.83,3.60,13.06
1777399447666,2084669,-0.86,-0.42,0.11,-7.26,3.97,14.95
1777399447666,2084689,-0.85,-0.42,0.16,-1.16,19.41,13.98
1777399447666,2084709,-0.87,-0.44,0.19,4.09,27.65,18.49
1777399447666,2084729,-0.87,-0.45,0.20,5.19,23.93,16.91
1777399447666,2084739,-0.86,-0.46,0.20,5.98,19.10,15.56
1777399447666,2084749,-0.84,-0.47,0.16,7.81,15.08,14.71
1777399447666,2084759,-0.83,-0.47,0.14,9.40,13.67,14.28
1777399447666,2084769,-0.83,-0.46,0.12,9.77,14.95,15.08
1777399447667,2084779,-0.86,-0.45,0.10,8.97,17.58,16.24
1777399447667,2084789,-0.88,-0.45,0.14,6.47,20.26,16.91
1777399447667,2084799,-0.91,-0.45,0.19,3.78,18.98,17.21
1777399447667,2084809,-0.93,-0.45,0.19,3.42,13.12,17.58
1777399447667,2084819,-0.93,-0.46,0.19,3.54,7.63,17.40
1777399447667,2084829,-0.92,-0.48,0.18,2.56,3.30,15.93
1777399447667,2084839,-0.91,-0.48,0.17,1.77,0.00,14.22
1777399447667,2084849,-0.91,-0.46,0.16,2.81,-1.89,13.79
1777399447667,2084859,-0.94,-0.45,0.15,3.91,-0.73,14.34
1777399447668,2084869,-0.96,-0.45,0.16,3.42,2.01,13.73
1777399447668,2084879,-0.96,-0.43,0.17,2.69,3.42,11.47
1777399447668,2084889,-0.97,-0.41,0.14,2.56,4.58,9.16
1777399447668,2084899,-0.98,-0.41,0.14,1.71,7.02,7.69
1777399447668,2084909,-0.99,-0.42,0.14,1.04,8.97,6.35
1777399447668,2084919,-0.99,-0.41,0.14,0.92,9.70,4.58
1777399447668,2084929,-0.99,-0.41,0.18,0.73,9.34,3.11
1777399447668,2084939,-0.99,-0.40,0.20,1.59,6.53,1.77
1777399447668,2084949,-0.97,-0.39,0.20,1.77,2.38,-0.12
1777399447669,2084959,-0.95,-0.38,0.18,0.79,-1.95,-1.89
1777399447669,2084969,-0.94,-0.37,0.17,-0.43,-4.64,-2.14
1777399447669,2084979,-0.93,-0.37,0.18,-0.55,-5.98,-0.61
1777399447669,2084989,-0.93,-0.37,0.19,0.43,-6.77,0.92
1777399447669,2084999,-0.92,-0.36,0.18,1.16,-7.20,-0.85
1777399447669,2085019,-0.92,-0.32,0.16,0.43,-1.46,-1.77
1777399447669,2085039,-0.92,-0.32,0.19,2.38,0.24,-5.00
1777399447669,2085059,-0.92,-0.30,0.22,3.30,-3.66,-5.19
1777399447669,2085079,-0.89,-0.30,0.19,2.20,-10.68,-5.43
1777399447670,2085089,-0.89,-0.30,0.17,3.66,-10.80,-4.64
1777399447670,2085099,-0.89,-0.29,0.11,5.55,-7.63,-5.19
1777399447670,2085109,-0.89,-0.27,0.18,4.52,-0.92,-6.84
1777399447670,2085119,-0.88,-0.31,0.21,2.93,2.50,-7.69
1777399447670,2085129,-0.88,-0.30,0.23,3.66,1.77,-7.08
1777399447670,2085139,-0.87,-0.31,0.22,4.27,-1.22,-5.25
1777399447670,2085149,-0.88,-0.32,0.24,3.54,-3.97,-4.27
1777399447670,2085159,-0.87,-0.31,0.23,3.11,-7.75,-3.97
1777399447670,2085169,-0.85,-0.33,0.21,2.87,-10.86,-3.66
1777399447671,2085179,-0.84,-0.34,0.20,3.17,-12.21,-3.23
1777399447671,2085189,-0.84,-0.36,0.20,4.27,-11.78,-3.05
1777399447671,2085199,-0.85,-0.37,0.20,5.92,-10.80,-3.54
1777399447671,2085209,-0.86,-0.36,0.20,7.32,-9.83,-4.82
1777399447671,2085219,-0.88,-0.36,0.21,8.24,-8.73,-6.35
1777399447671,2085229,-0.91,-0.35,0.21,9.95,-7.45,-8.12
1777399447671,2085239,-0.92,-0.35,0.22,11.90,-6.59,-10.31
1777399447671,2085249,-0.92,-0.34,0.22,13.79,-5.62,-12.45
1777399447671,2085259,-0.92,-0.36,0.21,14.47,-4.09,-13.55
1777399447671,2085269,-0.92,-0.38,0.22,15.01,-1.83,-14.77
1777399447672,2085279,-0.92,-0.40,0.22,16.60,0.73,-17.03
1777399447672,2085289,-0.93,-0.40,0.21,18.55,3.05,-20.14
1777399447672,2085299,-0.93,-0.41,0.21,19.78,5.25,-24.05
1777399447672,2085309,-0.95,-0.43,0.23,20.81,6.96,-28.32
1777399447672,2085319,-1.01,-0.46,0.30,18.68,4.82,-35.58
1777399447672,2085329,-0.95,-0.46,0.22,17.33,-0.85,-46.08
1777399447672,2085339,-0.94,-0.49,0.17,17.64,-0.73,-55.30
1777399447672,2085349,-0.92,-0.46,0.12,15.14,0.55,-70.19
1777399447672,2085369,-0.90,-0.37,0.11,0.00,9.95,-70.92
1777399447673,2085389,-0.88,-0.48,0.23,-5.80,8.54,-69.40
1777399447673,2085409,-0.87,-0.54,0.10,16.17,1.16,-75.81
1777399447673,2085419,-0.85,-0.54,0.08,17.40,2.81,-80.14
1777399447673,2085429,-0.88,-0.58,0.25,1.71,8.00,-84.11
1777399447673,2085439,-0.77,-0.24,0.24,-17.09,8.24,-86.00
1777399447673,2085449,-0.80,-0.21,0.14,-12.63,1.34,-66.04
1777399447673,2085459,-0.87,-0.20,0.03,-14.65,-1.10,-42.60
1777399447673,2085469,-0.92,-0.32,0.09,-22.77,4.88,-22.95
1777399447673,2085479,-0.88,-0.55,0.14,-34.55,11.23,-10.56
1777399447674,2085489,-0.85,-0.67,0.15,-33.69,14.47,-8.54
1777399447674,2085499,-0.87,-0.68,0.16,-20.39,13.98,-12.57
1777399447674,2085509,-0.88,-0.62,0.15,-8.06,10.80,-18.25
1777399447674,2085519,-0.87,-0.55,0.17,0.73,7.14,-19.90
1777399447674,2085529,-0.87,-0.52,0.16,8.85,3.54,-15.63
1777399447674,2085539,-0.92,-0.56,0.16,14.53,0.61,-10.62
1777399447674,2085549,-0.87,-0.50,0.14,15.93,-0.61,-10.44
1777399447674,2085559,-0.91,-0.49,0.16,15.26,-0.37,-8.85
1777399447674,2085569,-0.93,-0.47,0.19,14.28,-1.77,-6.04
1777399447675,2085579,-0.90,-0.45,0.12,12.63,-5.37,-4.52
1777399447675,2085589,-0.86,-0.50,0.12,-4.70,-0.85,-6.16
1777399447675,2085599,-0.81,-0.64,0.11,-25.82,7.32,-13.79
1777399447675,2085609,-0.79,-0.73,0.17,-34.85,6.71,-22.40
1777399447675,2085619,-0.77,-0.72,0.19,-26.98,0.79,-27.28
1777399447675,2085629,-0.75,-0.72,0.18,-18.25,-8.61,-28.44
1777399447675,2085639,-0.76,-0.67,0.17,-9.52,-17.46,-27.89
1777399447675,2085649,-0.75,-0.59,0.13,-5.13,-24.29,-27.53
1777399447675,2085659,-0.77,-0.50,0.10,-6.35,-26.67,-28.50
1777399447676,2085669,-0.78,-0.48,0.07,-11.41,-22.46,-31.74
1777399447676,2085679,-0.79,-0.54,0.08,-18.07,-14.22,-36.50
1777399447676,2085689,-0.77,-0.63,0.10,-20.81,-4.76,-43.52
1777399447676,2085709,-0.72,-0.67,0.15,-20.57,14.71,-42.42
1777399447676,2085729,-0.74,-0.68,0.13,-45.78,20.08,-27.34
1777399447676,2085749,-0.72,-0.61,0.01,-30.03,12.57,-28.32
1777399447676,2085769,-0.75,-0.64,0.02,-15.14,17.70,-21.85
1777399447676,2085779,-0.77,-0.63,0.05,-12.57,19.35,-21.42
1777399447677,2085789,-0.76,-0.63,0.04,-13.98,19.35,-22.83
1777399447677,2085799,-0.74,-0.64,0.02,-17.88,18.98,-23.74
1777399447677,2085809,-0.70,-0.67,0.01,-20.57,20.63,-23.19
1777399447677,2085819,-0.67,-0.69,0.03,-20.81,23.74,-20.51
1777399447677,2085829,-0.66,-0.68,0.05,-21.48,24.96,-17.76
1777399447677,2085839,-0.66,-0.64,0.07,-24.48,22.34,-14.40
1777399447677,2085849,-0.67,-0.63,0.05,-29.17,16.72,-11.11
1777399447677,2085859,-0.69,-0.63,0.00,-33.75,10.62,-9.77
1777399447677,2085869,-0.71,-0.64,-0.05,-35.40,6.41,-10.13
1777399447678,2085879,-0.72,-0.66,-0.08,-33.26,5.31,-10.93
1777399447678,2085889,-0.72,-0.68,-0.08,-28.69,5.92,-10.38
1777399447678,2085899,-0.74,-0.69,-0.07,-25.09,7.02,-7.63
1777399447678,2085909,-0.74,-0.70,-0.07,-24.84,8.00,-4.88
1777399447678,2085919,-0.77,-0.66,-0.11,-29.11,9.83,-3.30
1777399447678,2085929,-0.83,-0.68,-0.15,-35.52,14.28,-1.46
1777399447678,2085939,-0.88,-0.70,-0.17,-39.92,21.18,-2.20
1777399447678,2085949,-0.92,-0.70,-0.21,-41.69,27.71,-7.69
1777399447678,2085959,-0.98,-0.73,-0.28,-40.16,34.61,-12.88
1777399447678,2085969,-0.99,-0.74,-0.29,-34.30,44.13,-17.46
1777399447679,2085979,-1.00,-0.69,-0.27,-32.10,51.03,-20.75
1777399447687,2085989,-1.04,-0.71,-0.27,-38.15,52.31,-21.18
1777399447697,2085999,-1.04,-0.77,-0.26,-44.98,49.80,-23.07
1777399447707,2086009,-1.01,-0.79,-0.29,-47.55,44.43,-27.04
1777399447717,2086019,-1.01,-0.79,-0.37,-45.29,37.60,-30.15
1777399447727,2086029,-0.96,-0.84,-0.45,-33.02,36.25,-33.26
1777399447737,2086039,-0.92,-0.82,-0.49,-7.14,57.68,-50.35
1777399447757,2086059,-0.93,-0.80,-0.31,62.44,65.98,-61.58
1777399447777,2086079,-0.79,-0.85,0.01,34.24,54.57,-65.49
1777399447797,2086099,-0.59,-0.81,0.00,-3.17,45.17,-69.70
1777399447807,2086109,-0.50,-0.80,-0.02,-14.89,45.17,-69.09
1777399447817,2086119,-0.42,-0.82,-0.06,-17.70,47.79,-69.27
1777399447827,2086129,-0.33,-0.76,-0.06,-8.54,51.64,-72.57
1777399447837,2086139,-0.26,-0.72,0.00,3.42,54.57,-76.60
1777399447847,2086149,-0.23,-0.70,0.08,11.66,51.27,-77.21
1777399447857,2086159,-0.21,-0.66,0.10,12.94,39.73,-74.52
1777399447867,2086169,-0.19,-0.60,0.07,8.91,23.56,-70.92
1777399447877,2086179,-0.19,-0.57,0.02,4.94,8.54,-65.31
1777399447887,2086189,-0.17,-0.51,-0.02,1.22,-3.85,-59.51
1777399447897,2086199,-0.18,-0.46,-0.16,-7.08,-13.43,-52.92
1777399447907,2086209,-0.18,-0.46,-0.34,-14.16,-13.06,-43.58
1777399447917,2086219,-0.20,-0.42,-0.45,-14.65,-0.98,-34.73
1777399447927,2086229,-0.22,-0.37,-0.54,-14.65,15.01,-25.27
1777399447937,2086239,-0.27,-0.35,-0.62,-13.43,28.32,-14.40
1777399447947,2086249,-0.36,-0.32,-0.63,-8.24,36.13,-2.93
1777399447957,2086259,-0.42,-0.32,-0.65,-3.97,30.94,7.39
1777399447969,2086269,-0.43,-0.32,-0.71,3.05,11.72,16.66
1777399447980,2086279,-0.44,-0.29,-0.75,15.63,-11.41,27.83
1777399447987,2086289,-0.47,-0.25,-0.78,28.93,-27.59,40.47
1777399447997,2086299,-0.51,-0.21,-0.82,40.16,-29.42,51.57
1777399448007,2086309,-0.53,-0.29,-0.82,45.47,-15.32,62.99
1777399448017,2086319,-0.58,-0.38,-0.67,49.68,4.09,77.94
1777399448027,2086329,-0.63,-0.52,-0.54,50.54,11.78,96.44
1777399448037,2086339,-0.60,-0.70,-0.58,44.01,2.20,113.04
1777399448047,2086349,-0.48,-0.86,-0.67,39.12,-9.22,130.37
1777399448057,2086359,-0.37,-1.05,-0.69,27.65,-10.56,152.10
1777399448067,2086369,-0.27,-1.33,-0.75,1.95,-2.87,182.01
1777399448077,2086379,-0.33,-1.72,-0.92,-33.26,15.26,252.01
1777399448097,2086399,-0.71,-3.40,-1.63,-154.42,121.03,314.03
1777399448117,2086419,-0.75,-4.00,-0.26,-216.06,66.77,275.57
1777399448137,2086439,-0.65,-4.00,2.57,-277.16,12.39,197.20
1777399448157,2086459,-2.56,-4.00,4.00,-423.65,54.63,194.64
1777399448167,2086469,-3.83,-4.00,4.00,-523.86,87.22,165.16
1777399448177,2086479,-4.00,-4.00,4.00,-582.28,178.22,61.04
1777399448187,2086489,-3.89,-2.10,4.00,-646.67,250.18,-17.88
1777399448197,2086499,-3.44,-0.02,4.00,-755.49,309.57,-18.86
1777399448207,2086509,-3.26,1.73,4.00,-844.97,412.96,-1.53
1777399448217,2086519,-3.13,2.47,4.00,-881.84,477.84,-6.47
1777399448227,2086529,-2.25,3.05,4.00,-854.49,441.59,-58.35
1777399448237,2086539,-0.84,4.00,4.00,-768.49,350.89,-113.71
1777399448247,2086549,-0.02,4.00,4.00,-688.96,291.08,-111.02
1777399448257,2086559,0.07,4.00,3.05,-600.10,280.27,-94.48
1777399448267,2086569,-0.20,4.00,2.66,-463.99,287.11,-84.59
1777399448277,2086579,-0.64,4.00,2.45,-339.36,295.10,-77.39
1777399448287,2086589,-0.77,4.00,2.39,-252.44,289.31,-94.30
1777399448297,2086599,-0.65,3.91,2.63,-156.86,245.12,-138.18
1777399448307,2086609,-0.29,4.00,2.45,-86.49,158.51,-194.03
1777399448317,2086619,0.31,4.00,1.68,-61.71,78.25,-230.83
1777399448327,2086629,0.77,3.99,1.16,-45.90,49.32,-228.94
1777399448337,2086639,0.93,3.72,0.98,-22.58,37.96,-203.86
1777399448347,2086649,0.91,3.39,0.84,-2.69,12.82,-172.49
1777399448357,2086659,1.01,3.11,0.50,4.39,-15.50,-142.15
1777399448367,2086669,1.00,2.98,0.30,12.70,-17.27,-105.90
1777399448377,2086679,0.72,2.83,0.63,16.17,-5.74,-52.55
1777399448387,2086689,0.29,1.84,-0.12,6.35,-28.69,-12.57
1777399448397,2086699,-0.20,2.01,-0.48,35.28,-31.43,-32.84
1777399448407,2086709,-0.32,2.00,-0.16,74.22,-39.37,-48.10
1777399448417,2086719,-0.53,1.74,-0.28,81.67,-60.42,-35.58
1777399448427,2086729,-0.77,1.44,-0.42,78.06,-71.17,-19.78
1777399448447,2086749,-1.09,1.09,-0.40,76.90,-77.03,-13.98
1777399448467,2086769,-1.10,0.67,-0.40,78.92,-87.16,-25.39
1777399448487,2086789,-0.98,0.55,-0.33,110.47,-82.52,-29.48
1777399448507,2086809,-0.97,0.45,-0.23,140.26,-75.50,-36.38
1777399448517,2086819,-0.93,0.39,-0.26,148.01,-73.24,-40.28
1777399448527,2086829,-0.90,0.35,-0.29,155.52,-64.15,-42.60
1777399448537,2086839,-0.91,0.32,-0.20,165.10,-50.11,-41.87
1777399448547,2086849,-0.92,0.27,-0.19,168.15,-39.79,-41.44
1777399448557,2086859,-0.95,0.27,-0.17,169.37,-31.56,-43.70
1777399448567,2086869,-1.01,0.28,-0.16,172.36,-24.78,-46.57
1777399448577,2086879,-1.01,0.27,-0.19,174.13,-20.94,-48.46
1777399448587,2086889,-1.02,0.26,-0.19,177.55,-20.81,-47.91
