host_time_ms,arduino_time_ms,ax,ay,az,gx,gy,gz
1777399452551,2086899,-1.10,0.24,-0.17,182.98,-24.11,-46.51
1777399452551,2086909,-1.06,0.20,-0.27,184.02,-25.76,-47.42
1777399452551,2086919,-0.99,0.23,-0.33,185.97,-22.95,-50.23
1777399452551,2086929,-0.87,0.14,-0.42,191.41,-21.06,-50.84
1777399452551,2086939,-0.74,0.05,-0.49,200.99,-16.30,-51.57
1777399452551,2086949,-0.63,-0.01,-0.45,208.68,-7.57,-53.47
1777399452551,2086959,-0.52,-0.10,-0.48,205.63,-2.56,-54.63
1777399452551,2086969,-0.50,-0.13,-0.55,201.97,-4.88,-50.66
1777399452552,2086979,-0.53,-0.15,-0.64,204.77,-8.30,-42.54
1777399452552,2086989,-0.55,-0.13,-0.74,206.79,-7.45,-38.94
1777399452552,2086999,-0.58,-0.13,-0.77,211.67,-2.44,-35.89
1777399452552,2087009,-0.68,-0.17,-0.70,222.60,1.71,-31.98
1777399452552,2087019,-0.76,-0.19,-0.53,229.43,0.24,-34.42
1777399452552,2087029,-0.78,-0.25,-0.45,225.22,-13.06,-40.71
1777399452552,2087039,-0.78,-0.32,-0.43,215.70,-31.68,-47.67
1777399452552,2087049,-0.75,-0.42,-0.52,206.54,-49.13,-54.69
1777399452553,2087059,-0.68,-0.47,-0.60,202.64,-57.50,-60.67
1777399452553,2087069,-0.63,-0.50,-0.60,203.55,-55.42,-60.24
1777399452553,2087089,-0.70,-0.58,-0.47,184.63,-22.95,-40.22
1777399452553,2087109,-0.81,-0.77,-0.23,163.02,-26.06,-35.77
1777399452553,2087129,-0.90,-0.78,-0.25,138.43,-63.17,-50.17
1777399452553,2087149,-0.71,-0.70,-0.44,114.81,-77.27,-59.02
1777399452553,2087159,-0.64,-0.65,-0.44,106.63,-60.36,-50.66
1777399452553,2087169,-0.64,-0.63,-0.39,96.25,-34.73,-34.61
1777399452554,2087179,-0.65,-0.64,-0.34,81.48,-9.28,-17.27
1777399452554,2087189,-0.68,-0.65,-0.32,66.28,11.23,-3.11
1777399452554,2087199,-0.74,-0.67,-0.28,52.55,25.15,6.04
1777399452554,2087209,-0.82,-0.70,-0.22,41.93,27.22,8.61
1777399452554,2087219,-0.86,-0.71,-0.20,34.73,16.17,4.94
1777399452554,2087229,-0.86,-0.69,-0.23,30.21,-0.73,-2.20
1777399452554,2087239,-0.84,-0.64,-0.26,27.59,-13.18,-10.01
1777399452554,2087249,-0.81,-0.59,-0.30,24.60,-17.40,-15.26
1777399452555,2087259,-0.78,-0.54,-0.34,21.12,-14.65,-14.28
1777399452555,2087269,-0.82,-0.51,-0.35,18.43,-5.43,-7.63
1777399452555,2087279,-0.85,-0.50,-0.34,14.89,9.70,-0.43
1777399452555,2087289,-0.86,-0.50,-0.36,9.46,24.23,4.94
1777399452555,2087299,-0.86,-0.53,-0.35,6.53,34.12,8.91
1777399452555,2087309,-0.87,-0.54,-0.30,6.53,35.34,10.01
1777399452555,2087319,-0.87,-0.54,-0.29,6.29,25.21,5.86
1777399452556,2087329,-0.84,-0.54,-0.33,7.93,9.58,-1.53
1777399452556,2087339,-0.81,-0.52,-0.37,12.76,-1.65,-9.89
1777399452556,2087349,-0.78,-0.50,-0.39,18.68,-5.55,-16.97
1777399452556,2087359,-0.73,-0.48,-0.40,23.38,-5.37,-20.94
1777399452556,2087369,-0.70,-0.47,-0.41,26.49,-2.62,-19.96
1777399452556,2087379,-0.71,-0.47,-0.38,29.24,3.11,-16.36
1777399452556,2087389,-0.73,-0.47,-0.33,28.75,8.30,-12.27
1777399452556,2087399,-0.74,-0.49,-0.33,23.99,9.52,-8.79
1777399452557,2087409,-0.73,-0.52,-0.35,19.04,8.48,-7.02
1777399452557,2087419,-0.71,-0.55,-0.36,16.11,6.96,-7.75
1777399452557,2087439,-0.72,-0.57,-0.36,19.96,-10.01,-12.45
1777399452557,2087459,-0.75,-0.52,-0.40,23.68,-20.45,-18.86
1777399452557,2087479,-0.77,-0.51,-0.47,22.77,-15.08,-14.65
1777399452557,2087499,-0.79,-0.54,-0.40,21.85,4.82,-6.35
1777399452557,2087509,-0.78,-0.55,-0.37,18.98,9.46,-5.00
1777399452558,2087519,-0.75,-0.55,-0.38,16.91,8.61,-4.33
1777399452558,2087529,-0.73,-0.56,-0.41,18.31,6.23,-4.94
1777399452558,2087539,-0.72,-0.55,-0.39,24.11,6.16,-7.81
1777399452558,2087549,-0.71,-0.54,-0.35,29.30,5.37,-9.95
1777399452558,2087559,-0.74,-0.54,-0.34,29.30,0.85,-10.99
1777399452558,2087569,-0.78,-0.55,-0.36,28.81,-5.43,-12.57
1777399452558,2087579,-0.81,-0.56,-0.34,31.13,-10.50,-14.65
1777399452558,2087589,-0.84,-0.56,-0.31,32.29,-15.50,-17.33
1777399452558,2087599,-0.83,-0.57,-0.33,31.07,-20.87,-21.00
1777399452559,2087609,-0.81,-0.59,-0.36,31.86,-23.74,-25.02
1777399452559,2087619,-0.77,-0.56,-0.35,35.40,-22.77,-27.89
1777399452559,2087629,-0.73,-0.54,-0.33,37.23,-20.57,-26.92
1777399452559,2087639,-0.71,-0.51,-0.32,35.77,-16.91,-23.50
1777399452559,2087649,-0.70,-0.50,-0.32,31.68,-11.96,-18.68
1777399452559,2087659,-0.71,-0.50,-0.34,27.28,-5.00,-13.49
1777399452559,2087669,-0.74,-0.51,-0.35,25.15,3.60,-10.13
1777399452559,2087679,-0.77,-0.51,-0.31,25.09,11.47,-9.40
1777399452559,2087689,-0.81,-0.53,-0.26,24.29,13.24,-10.13
1777399452560,2087699,-0.83,-0.55,-0.26,21.85,7.20,-12.63
1777399452560,2087709,-0.81,-0.55,-0.30,22.16,0.12,-17.03
1777399452560,2087719,-0.78,-0.54,-0.29,24.72,-2.81,-21.61
1777399452560,2087729,-0.75,-0.53,-0.28,26.00,-5.19,-23.01
1777399452560,2087739,-0.72,-0.52,-0.29,26.06,-7.26,-23.07
1777399452560,2087749,-0.70,-0.51,-0.31,24.72,-7.63,-22.09
1777399452560,2087759,-0.70,-0.51,-0.33,23.19,-5.00,-19.84
1777399452560,2087779,-0.72,-0.54,-0.34,25.09,10.56,-15.20
1777399452560,2087799,-0.73,-0.62,-0.31,30.27,9.03,-16.85
1777399452561,2087819,-0.70,-0.59,-0.27,32.96,-1.53,-20.69
1777399452561,2087839,-0.72,-0.58,-0.23,31.01,-10.93,-21.67
1777399452561,2087849,-0.72,-0.59,-0.24,29.85,-13.55,-22.03
1777399452561,2087859,-0.71,-0.59,-0.24,29.60,-12.45,-22.34
1777399452561,2087869,-0.70,-0.60,-0.24,28.81,-8.48,-20.63
1777399452561,2087879,-0.71,-0.61,-0.23,27.47,-3.30,-18.07
1777399452561,2087889,-0.73,-0.62,-0.20,26.73,0.92,-16.11
1777399452561,2087899,-0.73,-0.63,-0.17,27.10,1.59,-15.50
1777399452562,2087909,-0.71,-0.61,-0.16,26.43,-2.01,-16.05
1777399452562,2087919,-0.67,-0.61,-0.16,23.62,-6.47,-16.97
1777399452562,2087929,-0.64,-0.60,-0.18,20.26,-10.01,-16.60
1777399452562,2087939,-0.62,-0.60,-0.18,17.88,-11.96,-15.14
1777399452562,2087949,-0.60,-0.60,-0.20,15.81,-13.49,-13.79
1777399452562,2087959,-0.60,-0.60,-0.23,13.12,-14.28,-11.84
1777399452562,2087969,-0.61,-0.61,-0.27,12.63,-12.57,-10.74
1777399452562,2087979,-0.62,-0.62,-0.26,15.08,-8.79,-9.64
1777399452562,2087989,-0.63,-0.62,-0.25,17.21,-6.41,-7.87
1777399452563,2087999,-0.66,-0.62,-0.26,17.33,-5.80,-6.65
1777399452563,2088009,-0.68,-0.63,-0.23,18.01,-5.74,-5.92
1777399452563,2088019,-0.71,-0.64,-0.22,18.80,-8.36,-5.07
1777399452563,2088029,-0.73,-0.65,-0.18,19.17,-11.54,-5.07
1777399452563,2088039,-0.74,-0.65,-0.16,18.01,-17.03,-6.35
1777399452563,2088049,-0.72,-0.66,-0.16,14.83,-23.01,-7.14
1777399452563,2088059,-0.70,-0.64,-0.18,11.47,-26.67,-5.74
1777399452563,2088069,-0.70,-0.64,-0.23,8.73,-25.45,-4.82
1777399452563,2088079,-0.68,-0.64,-0.24,8.18,-18.80,-5.00
1777399452564,2088089,-0.69,-0.63,-0.22,8.97,-11.17,-2.32
1777399452564,2088099,-0.70,-0.65,-0.24,9.03,-5.74,1.28
1777399452564,2088109,-0.71,-0.65,-0.23,10.93,14.04,5.19
1777399452564,2088129,-0.71,-0.68,-0.20,18.86,-3.05,5.80
1777399452564,2088149,-0.66,-0.68,-0.17,21.67,-14.53,2.62
1777399452564,2088169,-0.65,-0.67,-0.15,20.81,-19.90,3.78
1777399452564,2088189,-0.66,-0.66,-0.17,18.13,-13.61,7.57
1777399452564,2088199,-0.69,-0.66,-0.18,18.37,-6.47,9.16
1777399452564,2088209,-0.71,-0.67,-0.17,19.96,1.10,9.83
1777399452565,2088219,-0.73,-0.67,-0.15,22.28,5.98,9.58
1777399452565,2088229,-0.75,-0.68,-0.14,24.23,6.23,8.42
1777399452565,2088239,-0.75,-0.68,-0.13,26.37,3.11,6.41
1777399452565,2088249,-0.74,-0.68,-0.11,28.87,-1.40,4.21
1777399452565,2088259,-0.72,-0.67,-0.10,29.66,-6.77,2.75
1777399452565,2088269,-0.71,-0.67,-0.08,28.63,-11.60,2.56
1777399452565,2088279,-0.71,-0.67,-0.07,27.04,-15.08,2.14
1777399452565,2088289,-0.70,-0.67,-0.08,25.94,-17.40,1.04
1777399452565,2088299,-0.68,-0.67,-0.11,27.22,-17.27,-0.31
1777399452566,2088309,-0.65,-0.67,-0.11,30.70,-13.31,-0.67
1777399452566,2088319,-0.63,-0.66,-0.11,33.87,-6.35,0.98
1777399452566,2088329,-0.63,-0.66,-0.09,34.36,1.28,4.27
1777399452566,2088339,-0.65,-0.66,-0.07,32.35,7.57,8.73
1777399452566,2088349,-0.67,-0.67,-0.04,29.97,10.01,12.51
1777399452566,2088359,-0.68,-0.68,-0.03,27.10,7.14,15.14
1777399452566,2088369,-0.69,-0.68,-0.03,24.05,1.16,16.30
1777399452566,2088379,-0.71,-0.68,-0.04,22.09,-5.13,16.48
1777399452566,2088389,-0.72,-0.68,-0.07,21.67,-9.03,15.69
1777399452566,2088399,-0.73,-0.68,-0.09,24.29,-8.48,13.92
1777399452567,2088409,-0.74,-0.68,-0.08,28.81,-5.19,12.45
1777399452567,2088419,-0.75,-0.67,-0.05,32.65,-1.83,11.47
1777399452567,2088429,-0.76,-0.70,-0.03,34.24,-0.43,11.35
1777399452567,2088439,-0.82,-0.65,0.00,35.16,-0.92,10.19
1777399452567,2088449,-0.85,-0.64,0.02,34.42,-4.15,9.16
1777399452567,2088469,-0.87,-0.61,-0.00,33.75,-14.28,2.08
1777399452567,2088489,-0.84,-0.53,-0.02,31.56,-13.43,-0.49
1777399452567,2088509,-0.83,-0.52,-0.03,32.29,-8.30,-1.46
1777399452567,2088529,-0.84,-0.52,-0.03,32.53,-3.97,-0.49
1777399452568,2088539,-0.85,-0.52,-0.02,32.41,-2.20,-0.61
1777399452568,2088549,-0.87,-0.52,-0.00,32.59,-1.77,-1.22
1777399452568,2088559,-0.88,-0.53,0.00,32.59,-2.14,-2.81
1777399452568,2088569,-0.88,-0.53,0.01,32.04,-2.99,-4.46
1777399452568,2088579,-0.87,-0.53,0.01,31.56,-3.91,-5.19
1777399452568,2088589,-0.86,-0.53,0.01,30.82,-4.33,-5.07
1777399452568,2088599,-0.84,-0.53,0.01,30.09,-3.66,-5.25
1777399452568,2088609,-0.83,-0.53,0.02,29.24,-2.75,-4.76
1777399452568,2088619,-0.82,-0.54,0.02,27.59,-2.38,-2.99
1777399452569,2088629,-0.83,-0.54,0.03,26.00,-1.16,-0.92
1777399452569,2088639,-0.84,-0.56,0.03,25.63,0.12,0.24
1777399452569,2088649,-0.85,-0.58,0.05,24.90,1.04,-0.12
1777399452569,2088659,-0.84,-0.58,0.04,23.99,0.49,-0.79
1777399452569,2088669,-0.83,-0.59,0.03,23.07,-0.12,-0.92
1777399452569,2088679,-0.83,-0.59,0.03,21.85,-0.98,-0.31
1777399452569,2088689,-0.82,-0.59,0.02,20.26,-1.83,0.98
1777399452569,2088699,-0.81,-0.59,0.02,18.55,-1.46,1.83
1777399452569,2088709,-0.81,-0.59,0.03,15.63,-1.16,3.78
1777399452570,2088719,-0.81,-0.60,0.02,12.15,-1.34,6.47
1777399452570,2088729,-0.82,-0.60,0.02,9.28,-1.53,7.87
1777399452570,2088739,-0.82,-0.61,0.00,7.69,-1.71,8.18
1777399452570,2088749,-0.80,-0.60,-0.00,6.96,-1.83,7.81
1777399452570,2088759,-0.80,-0.59,-0.00,5.80,-2.32,8.24
1777399452570,2088769,-0.79,-0.59,-0.01,4.21,-2.93,9.09
1777399452570,2088779,-0.79,-0.59,-0.03,2.08,-3.05,9.16
1777399452570,2088789,-0.77,-0.59,-0.05,-0.06,-2.32,8.79
1777399452570,2088799,-0.77,-0.59,-0.05,-1.65,-1.34,10.13
1777399452571,2088819,-0.79,-0.59,-0.04,-8.12,-4.94,8.79
1777399452571,2088839,-0.80,-0.60,-0.06,-10.68,-8.00,4.33
1777399452571,2088859,-0.78,-0.61,-0.05,-10.01,-9.16,1.34
1777399452571,2088879,-0.79,-0.61,-0.02,-9.40,-13.73,-0.61
1777399452571,2088889,-0.80,-0.61,-0.01,-10.13,-16.60,-2.08
1777399452571,2088899,-0.80,-0.61,-0.01,-10.44,-18.68,-3.05
1777399452571,2088909,-0.81,-0.61,-0.01,-9.95,-18.62,-3.48
1777399452571,2088919,-0.82,-0.60,0.00,-10.50,-16.97,-3.72
1777399452571,2088929,-0.83,-0.60,0.01,-12.02,-15.32,-3.85
1777399452571,2088939,-0.83,-0.60,0.01,-13.85,-13.98,-3.85
1777399452572,2088949,-0.84,-0.59,0.00,-15.08,-12.82,-4.09
1777399452572,2088959,-0.84,-0.59,0.01,-16.17,-11.96,-4.64
1777399452572,2088969,-0.83,-0.58,0.01,-17.09,-12.15,-5.25
1777399452572,2088979,-0.84,-0.58,0.01,-17.58,-13.12,-5.49
1777399452572,2088989,-0.84,-0.58,0.01,-17.33,-14.04,-6.71
1777399452572,2088999,-0.83,-0.58,0.01,-16.66,-14.34,-9.40
1777399452572,2089009,-0.82,-0.58,0.01,-15.56,-14.71,-11.60
1777399452572,2089019,-0.81,-0.57,0.02,-14.65,-15.75,-11.54
1777399452572,2089029,-0.82,-0.57,0.02,-14.47,-16.85,-10.38
1777399452573,2089039,-0.81,-0.56,0.00,-14.65,-16.36,-9.46
1777399452573,2089049,-0.81,-0.55,0.00,-14.95,-13.67,-8.85
1777399452573,2089059,-0.80,-0.54,0.01,-16.48,-10.86,-7.51
1777399452573,2089069,-0.80,-0.54,0.01,-19.23,-9.03,-5.31
1777399452573,2089079,-0.80,-0.55,0.00,-21.18,-7.93,-4.03
1777399452573,2089089,-0.82,-0.54,-0.00,-21.30,-7.02,-3.78
1777399452573,2089099,-0.82,-0.55,-0.01,-19.84,-6.23,-4.58
1777399452573,2089109,-0.82,-0.54,-0.01,-17.76,-5.19,-6.29
1777399452573,2089119,-0.81,-0.54,0.00,-16.48,-4.58,-7.75
1777399452574,2089129,-0.80,-0.55,0.00,-16.11,-5.49,-8.79
1777399452574,2089139,-0.79,-0.55,-0.02,-15.87,-7.45,-9.89
1777399452574,2089159,-0.75,-0.56,-0.03,-11.60,-10.38,-9.83
1777399452574,2089179,-0.76,-0.57,-0.02,-7.87,-10.07,-10.19
1777399452574,2089199,-0.80,-0.58,0.00,-4.70,-11.23,-10.44
1777399452574,2089219,-0.80,-0.58,0.02,-2.62,-13.00,-12.02
1777399452574,2089229,-0.81,-0.57,0.04,-2.75,-13.43,-12.39
1777399452574,2089239,-0.81,-0.58,0.03,-4.09,-13.98,-13.18
1777399452574,2089249,-0.81,-0.58,0.03,-4.88,-14.22,-13.31
1777399452575,2089259,-0.80,-0.58,0.02,-4.64,-14.16,-12.39
1777399452575,2089269,-0.81,-0.57,0.02,-3.97,-13.43,-11.41
1777399452575,2089279,-0.81,-0.57,0.02,-3.30,-12.08,-10.74
1777399452575,2089289,-0.82,-0.57,0.03,-3.11,-11.05,-10.19
1777399452575,2089299,-0.83,-0.56,0.03,-2.75,-10.13,-9.95
1777399452575,2089309,-0.83,-0.55,0.02,-2.81,-9.52,-9.83
1777399452575,2089319,-0.82,-0.55,0.02,-3.48,-8.73,-10.13
1777399452575,2089329,-0.82,-0.54,0.00,-3.97,-8.24,-9.64
1777399452575,2089339,-0.81,-0.53,-0.01,-4.46,-7.51,-8.42
1777399452576,2089349,-0.80,-0.53,-0.03,-5.31,-6.23,-7.02
1777399452576,2089359,-0.80,-0.53,-0.04,-5.37,-4.21,-5.19
1777399452576,2089369,-0.80,-0.53,-0.05,-4.21,-2.20,-3.97
1777399452576,2089379,-0.80,-0.53,-0.05,-3.23,0.06,-3.36
1777399452576,2089389,-0.81,-0.54,-0.04,-2.93,1.04,-2.50
1777399452576,2089399,-0.82,-0.54,-0.04,-3.11,0.67,-1.40
1777399452576,2089409,-0.82,-0.53,-0.06,-3.66,0.73,-1.22
1777399452576,2089419,-0.81,-0.52,-0.07,-3.85,1.71,-1.40
1777399452576,2089429,-0.81,-0.53,-0.08,-3.54,3.72,-1.10
1777399452576,2089439,-0.80,-0.52,-0.08,-2.81,5.68,-0.37
1777399452577,2089449,-0.79,-0.52,-0.08,-2.93,7.32,0.55
1777399452577,2089459,-0.80,-0.53,-0.07,-3.66,7.51,1.16
1777399452577,2089469,-0.81,-0.55,-0.07,-3.97,5.62,0.73
1777399452577,2089479,-0.80,-0.55,-0.08,-3.30,2.08,-0.43
1777399452577,2089489,-0.79,-0.55,-0.08,-2.01,-2.20,-2.62
1777399452577,2089509,-0.78,-0.55,-0.11,3.66,-6.77,-3.66
1777399452577,2089529,-0.79,-0.57,-0.07,7.20,-4.03,-3.23
1777399452577,2089549,-0.82,-0.57,-0.06,7.51,-5.13,-4.09
1777399452577,2089569,-0.81,-0.59,-0.05,6.96,-6.35,-5.80
1777399452578,2089579,-0.80,-0.59,-0.05,6.90,-6.59,-6.53
1777399452578,2089589,-0.80,-0.59,-0.03,6.16,-7.14,-7.26
1777399452578,2089599,-0.80,-0.59,-0.03,5.37,-8.42,-7.57
1777399452578,2089609,-0.80,-0.59,-0.04,5.68,-8.97,-8.00
1777399452578,2089619,-0.80,-0.59,-0.04,6.41,-7.69,-8.85
1777399452578,2089629,-0.80,-0.59,-0.03,7.08,-5.37,-9.09
1777399452578,2089639,-0.81,-0.58,-0.01,6.59,-4.39,-8.06
1777399452578,2089649,-0.81,-0.58,-0.01,5.07,-5.00,-7.45
1777399452578,2089659,-0.81,-0.58,-0.02,3.60,-5.92,-7.75
1777399452578,2089669,-0.81,-0.58,-0.03,2.87,-6.59,-7.75
1777399452579,2089679,-0.80,-0.58,-0.03,2.56,-7.02,-7.39
1777399452579,2089689,-0.81,-0.57,-0.02,1.83,-7.57,-7.08
1777399452579,2089699,-0.81,-0.57,-0.03,0.43,-8.42,-7.02
1777399452579,2089709,-0.81,-0.57,-0.05,-0.18,-8.42,-7.93
1777399452579,2089719,-0.80,-0.56,-0.06,0.49,-6.71,-9.46
1777399452579,2089729,-0.79,-0.55,-0.07,1.77,-4.09,-9.89
1777399452579,2089739,-0.79,-0.56,-0.05,2.20,-1.40,-8.85
1777399452579,2089749,-0.79,-0.56,-0.03,1.71,-0.43,-7.57
1777399452579,2089759,-0.80,-0.56,-0.03,0.67,-1.89,-6.35
1777399452579,2089769,-0.80,-0.56,-0.04,-0.79,-3.85,-5.98
1777399452580,2089779,-0.80,-0.56,-0.05,-2.08,-5.07,-6.29
1777399452580,2089789,-0.80,-0.56,-0.06,-1.95,-4.94,-6.23
1777399452580,2089799,-0.80,-0.55,-0.06,-1.16,-4.21,-6.35
1777399452580,2089809,-0.81,-0.55,-0.06,-0.06,-3.05,-6.41
1777399452580,2089819,-0.81,-0.55,-0.07,1.28,-1.71,-6.96
1777399452580,2089829,-0.80,-0.56,-0.06,2.50,-0.49,-7.93
1777399452580,2089849,-0.81,-0.55,-0.05,4.39,-3.60,-9.70
1777399452580,2089869,-0.81,-0.55,-0.06,6.10,-4.09,-8.54
1777399452580,2089889,-0.82,-0.56,-0.04,7.02,-1.65,-7.63
1777399452581,2089909,-0.82,-0.57,-0.03,8.30,-1.46,-9.40
1777399452581,2089919,-0.81,-0.57,-0.02,9.09,-2.62,-10.01
1777399452581,2089929,-0.79,-0.57,-0.02,9.40,-4.15,-9.95
1777399452581,2089939,-0.78,-0.57,-0.03,9.28,-5.25,-9.89
1777399452581,2089949,-0.78,-0.57,-0.03,9.28,-5.19,-9.64
1777399452581,2089959,-0.77,-0.57,-0.03,9.22,-4.39,-9.40
1777399452581,2089969,-0.77,-0.57,-0.03,8.97,-3.78,-9.09
1777399452581,2089979,-0.77,-0.58,-0.03,8.85,-4.03,-8.06
1777399452581,2089989,-0.77,-0.58,-0.03,8.79,-4.64,-7.32
1777399452581,2089999,-0.76,-0.59,-0.02,8.61,-5.00,-7.39
1777399452582,2090009,-0.77,-0.58,-0.02,8.36,-5.43,-7.26
1777399452582,2090019,-0.78,-0.59,-0.02,7.93,-6.35,-6.04
1777399452582,2090029,-0.79,-0.59,-0.01,7.14,-6.71,-5.68
1777399452582,2090039,-0.79,-0.59,-0.01,6.04,-7.14,-5.80
1777399452582,2090049,-0.79,-0.59,-0.02,4.76,-7.14,-5.68
1777399452582,2090059,-0.77,-0.59,-0.02,3.78,-6.35,-5.13
1777399452582,2090069,-0.79,-0.59,-0.02,2.50,-5.19,-4.27
1777399452582,2090079,-0.79,-0.60,-0.03,1.22,-4.52,-2.99
1777399452582,2090089,-0.80,-0.60,-0.03,0.73,-4.52,-2.75
1777399452582,2090099,-0.81,-0.60,-0.02,0.79,-5.00,-3.05
1777399452583,2090109,-0.81,-0.59,-0.02,0.79,-6.41,-3.17
1777399452583,2090119,-0.81,-0.60,-0.03,0.73,-7.69,-3.23
1777399452583,2090129,-0.80,-0.59,-0.04,0.73,-8.00,-3.66
1777399452583,2090139,-0.80,-0.59,-0.05,0.49,-7.39,-3.91
1777399452583,2090149,-0.80,-0.59,-0.04,0.12,-6.41,-3.72
1777399452583,2090159,-0.80,-0.58,-0.04,0.06,-5.62,-3.17
1777399452583,2090169,-0.80,-0.58,-0.05,-0.18,-4.94,-3.11
1777399452583,2090179,-0.80,-0.59,-0.05,-0.61,-4.21,-3.97
1777399452583,2090199,-0.80,-0.58,-0.05,1.04,-3.30,-4.70
1777399452583,2090219,-0.82,-0.58,-0.03,1.59,-4.15,-6.77
1777399452584,2090239,-0.81,-0.57,-0.04,1.65,-4.88,-7.51
1777399452584,2090259,-0.79,-0.57,-0.04,1.77,-3.30,-7.39
1777399452584,2090269,-0.80,-0.57,-0.04,2.08,-2.38,-7.26
1777399452584,2090279,-0.80,-0.57,-0.03,3.17,-1.71,-7.51
1777399452584,2090289,-0.80,-0.57,-0.03,4.46,-1.77,-8.91
1777399452584,2090299,-0.80,-0.57,-0.03,5.68,-2.32,-10.56
1777399452584,2090309,-0.79,-0.56,-0.03,7.08,-2.69,-11.11
1777399452584,2090319,-0.80,-0.56,-0.03,8.06,-2.87,-10.74
1777399452584,2090329,-0.81,-0.56,-0.03,8.91,-2.62,-10.86
1777399452585,2090339,-0.81,-0.56,-0.03,9.83,-1.89,-11.41
1777399452585,2090349,-0.81,-0.57,-0.03,10.62,-1.46,-11.90
1777399452585,2090359,-0.81,-0.57,-0.02,11.54,-1.40,-12.45
1777399452585,2090369,-0.82,-0.58,-0.02,12.27,-1.83,-12.63
1777399452585,2090379,-0.83,-0.58,-0.03,13.24,-1.89,-13.37
1777399452585,2090389,-0.82,-0.58,-0.03,14.71,-1.16,-15.20
1777399452585,2090399,-0.82,-0.58,-0.02,15.99,-0.43,-16.66
1777399452585,2090409,-0.81,-0.59,-0.02,16.17,-0.67,-16.97
1777399452585,2090419,-0.82,-0.59,-0.02,15.99,-1.22,-16.97
1777399452585,2090429,-0.82,-0.59,-0.04,16.17,-0.55,-17.58
1777399452586,2090439,-0.82,-0.60,-0.04,17.33,1.34,-18.80
1777399452586,2090449,-0.81,-0.60,-0.04,19.17,3.36,-19.59
1777399452586,2090459,-0.81,-0.60,-0.03,20.94,4.03,-19.47
1777399452586,2090469,-0.80,-0.61,-0.03,21.79,3.42,-19.59
1777399452586,2090479,-0.80,-0.60,-0.05,22.71,2.32,-20.20
1777399452586,2090489,-0.79,-0.63,-0.04,24.48,2.26,-21.06
1777399452586,2090499,-0.80,-0.63,-0.04,25.57,2.14,-23.01
1777399452586,2090509,-0.80,-0.64,-0.04,27.65,2.08,-24.72
1777399452586,2090519,-0.80,-0.65,-0.03,29.54,2.32,-27.10
1777399452587,2090539,-0.78,-0.67,-0.02,33.14,3.48,-29.72
1777399452587,2090559,-0.77,-0.68,0.01,31.68,-0.31,-29.24
1777399452587,2090579,-0.74,-0.69,0.01,29.54,-4.27,-27.95
1777399452587,2090599,-0.73,-0.69,0.04,26.79,-6.16,-27.83
1777399452587,2090609,-0.72,-0.69,0.04,24.29,-7.93,-27.47
1777399452587,2090619,-0.70,-0.68,0.04,21.24,-9.16,-26.31
1777399452587,2090629,-0.70,-0.68,0.04,17.46,-9.52,-23.56
1777399452587,2090639,-0.70,-0.68,0.04,13.00,-9.03,-21.00
1777399452587,2090649,-0.70,-0.67,0.03,9.03,-7.81,-19.17
1777399452587,2090659,-0.70,-0.67,0.03,5.80,-5.86,-17.09
1777399452588,2090669,-0.71,-0.67,0.02,3.66,-3.36,-15.26
1777399452588,2090679,-0.70,-0.67,0.01,2.99,-0.61,-14.65
1777399452588,2090689,-0.69,-0.66,0.02,3.11,2.50,-14.53
1777399452588,2090699,-0.70,-0.67,0.03,2.93,4.76,-12.88
1777399452588,2090709,-0.69,-0.67,0.04,1.71,5.25,-11.47
1777399452588,2090719,-0.68,-0.67,0.04,0.24,4.21,-10.80
1777399452588,2090729,-0.67,-0.66,0.03,-0.85,2.56,-9.58
1777399452588,2090739,-0.66,-0.66,0.03,-1.89,1.04,-8.06
1777399452588,2090749,-0.66,-0.66,0.02,-3.11,0.55,-6.47
1777399452588,2090759,-0.66,-0.66,0.02,-3.91,1.16,-4.58
1777399452588,2090769,-0.68,-0.66,0.02,-4.46,1.83,-2.87
1777399452589,2090779,-0.69,-0.67,0.02,-4.46,2.32,-1.77
1777399452589,2090789,-0.70,-0.68,0.02,-3.78,2.26,-1.71
1777399452589,2090799,-0.71,-0.68,0.01,-2.93,2.01,-2.08
1777399452589,2090809,-0.72,-0.68,0.00,-2.26,1.77,-2.14
1777399452589,2090819,-0.73,-0.68,-0.01,-1.89,1.53,-1.53
1777399452589,2090829,-0.74,-0.68,-0.03,-2.56,1.71,-0.43
1777399452589,2090839,-0.76,-0.68,-0.05,-4.39,2.81,1.16
1777399452589,2090849,-0.78,-0.67,-0.08,-6.65,4.88,2.93
1777399452589,2090859,-0.81,-0.67,-0.11,-8.73,7.75,3.78
1777399452589,2090869,-0.86,-0.67,-0.13,-8.18,10.99,0.43
1777399452590,2090889,-0.90,-0.66,-0.13,5.43,19.47,-5.37
1777399452607,2090909,-0.85,-0.64,-0.14,7.39,17.76,-8.91
1777399452627,2090929,-0.88,-0.66,-0.15,8.18,16.42,-13.49
1777399452647,2090949,-0.87,-0.67,-0.13,12.88,2.87,-23.19
1777399452657,2090959,-0.81,-0.68,-0.15,17.64,-6.59,-30.27
1777399452667,2090969,-0.74,-0.63,-0.15,23.07,-13.12,-36.25
1777399452677,2090979,-0.67,-0.63,-0.17,26.79,-16.05,-38.15
1777399452687,2090989,-0.64,-0.57,-0.18,29.42,-13.67,-36.68
1777399452697,2090999,-0.64,-0.60,-0.23,30.40,-7.20,-33.45
1777399452707,2091009,-0.67,-0.62,-0.22,34.67,3.23,-33.14
1777399452717,2091019,-0.69,-0.61,-0.17,39.31,11.72,-37.35
1777399452727,2091029,-0.68,-0.63,-0.11,40.53,12.88,-43.09
1777399452737,2091039,-0.66,-0.66,-0.09,40.83,6.10,-46.63
1777399452747,2091049,-0.65,-0.68,-0.14,43.95,-5.07,-49.26
1777399452757,2091059,-0.62,-0.72,-0.18,53.65,-14.16,-53.47
1777399452767,2091069,-0.58,-0.69,-0.14,67.02,-18.49,-57.74
1777399452777,2091079,-0.56,-0.68,-0.05,72.39,-21.73,-57.50
1777399452787,2091089,-0.55,-0.69,-0.09,69.82,-25.33,-52.86
1777399452797,2091099,-0.52,-0.71,-0.19,73.06,-21.97,-48.95
1777399452807,2091109,-0.51,-0.69,-0.10,85.94,-6.65,-44.07
1777399452817,2091119,-0.58,-0.69,0.07,92.65,7.26,-36.56
1777399452827,2091129,-0.64,-0.71,0.23,83.01,9.89,-31.56
1777399452837,2091139,-0.61,-0.74,0.27,61.52,-0.37,-29.91
1777399452847,2091149,-0.59,-0.77,0.22,39.49,-16.66,-25.63
1777399452858,2091159,-0.61,-0.80,0.19,26.86,-27.22,-18.37
1777399452867,2091169,-0.63,-0.82,0.15,20.26,-27.83,-12.76
1777399452877,2091179,-0.66,-0.85,0.06,16.97,-16.48,-7.81
1777399452887,2091189,-0.71,-0.87,0.05,17.27,8.48,-0.24
1777399452902,2091199,-0.81,-0.92,0.13,14.59,36.25,10.38
1777399452907,2091209,-0.83,-0.93,0.19,3.60,54.32,20.39
1777399452927,2091229,-0.76,-0.94,0.15,-50.23,69.21,57.68
1777399452947,2091249,-0.76,-1.23,-0.01,-77.45,73.97,93.32
1777399452967,2091269,-0.65,-1.93,-0.48,-100.28,92.47,122.56
1777399452987,2091289,-0.39,-4.00,-0.61,-131.65,141.54,175.35
1777399452997,2091299,0.10,-4.00,-0.26,-170.84,143.01,183.35
1777399453007,2091309,0.57,-4.00,0.56,-195.25,114.32,163.39
1777399453017,2091319,0.64,-4.00,1.99,-199.71,77.64,132.57
1777399453027,2091329,0.41,-4.00,3.93,-226.32,54.20,100.28
1777399453037,2091339,0.32,-4.00,4.00,-313.90,22.83,67.32
1777399453047,2091349,0.10,-4.00,4.00,-458.44,-8.79,75.99
1777399453057,2091359,-0.19,-3.63,4.00,-601.14,-6.84,115.72
1777399453067,2091369,-0.37,-2.48,4.00,-693.60,52.67,132.93
1777399453077,2091379,-0.70,-1.07,4.00,-720.83,161.38,118.04
1777399453087,2091389,-1.06,0.59,4.00,-734.01,221.56,125.00
1777399453097,2091399,-1.41,1.92,4.00,-759.58,237.18,153.56
1777399453107,2091409,-1.87,2.68,4.00,-763.06,265.14,172.36
1777399453117,2091419,-1.82,3.15,4.00,-746.40,270.94,152.10
1777399453127,2091429,-1.36,3.67,4.00,-697.27,249.88,108.34
1777399453137,2091439,-0.76,3.97,3.25,-625.18,236.15,69.21
1777399453147,2091449,-0.18,3.88,2.31,-534.73,231.87,40.77
1777399453157,2091459,-0.11,3.82,1.84,-429.99,230.71,14.40
1777399453167,2091469,-0.24,3.81,1.47,-329.71,207.34,-11.41
1777399453177,2091479,-0.19,3.63,1.12,-248.72,168.09,-51.27
1777399453187,2091489,-0.06,3.62,1.26,-160.58,134.03,-104.25
1777399453197,2091499,0.15,3.73,1.34,-92.04,85.02,-154.24
1777399453207,2091509,0.51,3.71,0.88,-63.84,23.80,-180.36
1777399453217,2091519,0.84,3.50,0.42,-49.44,-11.35,-178.16
1777399453230,2091529,0.89,3.19,0.31,-25.57,-17.09,-158.94
1777399453237,2091539,0.82,2.84,0.17,2.50,-28.63,-139.10
1777399453247,2091549,0.82,2.55,0.02,28.02,-44.19,-123.29
1777399453257,2091559,0.62,2.27,-0.02,45.29,-50.78,-73.43
1777399453277,2091579,-0.14,1.72,0.02,64.27,-80.20,-49.13
1777399453297,2091599,-0.55,1.27,-0.24,54.63,-85.69,-15.81
1777399453317,2091619,-1.20,0.82,-0.29,50.17,-73.73,10.07
1777399453337,2091639,-1.32,0.46,-0.32,66.83,-88.13,-10.44
1777399453347,2091649,-1.27,0.41,-0.39,73.73,-96.86,-23.93
1777399453357,2091659,-1.25,0.43,-0.41,81.60,-93.99,-28.63
1777399453367,2091669,-1.24,0.41,-0.40,81.91,-81.36,-24.96
1777399453377,2091679,-1.26,0.39,-0.39,75.01,-63.42,-17.82
1777399453387,2091689,-1.19,0.38,-0.41,68.42,-46.57,-13.12
1777399453397,2091699,-1.07,0.34,-0.46,63.35,-32.84,-11.05
1777399453407,2091709,-1.01,0.24,-0.47,63.17,-24.78,-10.56
1777399453417,2091719,-0.94,0.19,-0.41,69.76,-24.60,-14.10
1777399453427,2091729,-0.71,0.14,-0.63,72.33,-30.33,-16.05
1777399453437,2091739,-0.74,0.22,-0.71,68.48,-27.16,-18.98
1777399453447,2091749,-0.83,0.14,-0.69,77.58,-21.85,-20.63
1777399453457,2091759,-0.90,0.15,-0.68,88.38,-27.77,-20.63
1777399453467,2091769,-0.97,0.17,-0.69,91.98,-34.73,-21.30
1777399453477,2091779,-1.03,0.18,-0.67,92.22,-35.10,-21.97
1777399453487,2091789,-1.07,0.18,-0.61,90.64,-32.53,-21.24
1777399453497,2091799,-1.07,0.17,-0.59,86.61,-29.17,-19.71
1777399453507,2091809,-1.06,0.14,-0.56,83.92,-22.77,-18.31
1777399453517,2091819,-1.07,0.11,-0.48,83.92,-14.16,-18.25
1777399453527,2091829,-1.04,0.05,-0.47,84.17,-6.53,-21.30
1777399453537,2091839,-1.06,-0.02,-0.44,84.59,2.44,-28.32
1777399453547,2091849,-1.03,-0.09,-0.45,87.95,6.53,-39.98
1777399453557,2091859,-0.97,-0.08,-0.44,91.92,5.80,-54.57
