host_time_ms,arduino_time_ms,ax,ay,az,gx,gy,gz
1777399805063,2432095,-0.89,-0.22,-0.31,-13.55,-39.12,27.34
1777399805063,2432105,-0.93,-0.14,-0.31,-10.68,-31.43,24.96
1777399805064,2432115,-0.94,-0.21,-0.32,-9.46,-23.07,22.40
1777399805064,2432125,-0.96,-0.22,-0.31,-8.48,-15.75,19.84
1777399805064,2432135,-0.97,-0.23,-0.32,-6.90,-11.66,18.37
1777399805064,2432145,-0.98,-0.26,-0.35,-5.92,-9.95,17.76
1777399805065,2432155,-0.99,-0.26,-0.37,-4.58,-7.69,15.87
1777399805065,2432165,-1.02,-0.27,-0.40,-2.75,-5.62,14.16
1777399805065,2432175,-1.02,-0.27,-0.43,0.49,-2.75,11.17
1777399805066,2432185,-1.02,-0.26,-0.45,3.85,0.98,7.39
1777399805066,2432195,-1.01,-0.25,-0.46,6.65,5.43,3.97
1777399805066,2432205,-1.00,-0.25,-0.47,8.85,9.52,0.67
1777399805066,2432215,-0.97,-0.29,-0.50,10.50,13.24,-2.56
1777399805067,2432225,-0.95,-0.32,-0.53,12.45,17.03,-6.35
1777399805067,2432235,-0.92,-0.37,-0.54,15.26,20.63,-13.49
1777399805067,2432255,-0.89,-0.42,-0.53,26.92,18.19,-14.47
1777399805068,2432275,-0.86,-0.45,-0.51,34.85,6.90,-15.01
1777399805068,2432295,-0.83,-0.49,-0.51,42.18,-2.01,-16.42
1777399805068,2432315,-0.80,-0.54,-0.46,45.78,-2.69,-21.55
1777399805069,2432325,-0.79,-0.56,-0.44,45.78,-2.69,-23.19
1777399805069,2432335,-0.78,-0.58,-0.42,45.23,-3.11,-24.11
1777399805069,2432345,-0.78,-0.59,-0.39,44.25,-3.91,-25.09
1777399805069,2432355,-0.77,-0.59,-0.36,43.03,-5.19,-26.00
1777399805070,2432365,-0.76,-0.59,-0.33,41.20,-6.47,-26.12
1777399805070,2432375,-0.75,-0.58,-0.30,37.48,-8.06,-26.31
1777399805070,2432385,-0.74,-0.56,-0.27,32.47,-10.19,-26.31
1777399805070,2432395,-0.74,-0.56,-0.27,27.95,-12.57,-26.12
1777399805071,2432405,-0.73,-0.57,-0.26,24.11,-13.37,-27.53
1777399805071,2432415,-0.71,-0.55,-0.25,21.00,-13.00,-29.48
1777399805071,2432425,-0.70,-0.55,-0.24,18.19,-12.33,-29.36
1777399805071,2432435,-0.68,-0.54,-0.24,15.26,-10.68,-27.65
1777399805072,2432445,-0.67,-0.53,-0.23,11.35,-8.18,-25.02
1777399805072,2432455,-0.68,-0.52,-0.21,6.59,-5.19,-21.48
1777399805072,2432465,-0.67,-0.51,-0.20,1.04,-3.17,-18.13
1777399805072,2432475,-0.67,-0.50,-0.20,-5.13,-2.62,-15.50
1777399805073,2432485,-0.66,-0.48,-0.22,-10.50,-2.62,-12.21
1777399805073,2432495,-0.67,-0.46,-0.26,-14.22,-1.28,-8.61
1777399805073,2432505,-0.67,-0.46,-0.30,-16.78,2.93,-6.41
1777399805073,2432515,-0.68,-0.44,-0.33,-18.25,8.97,-5.92
1777399805074,2432525,-0.68,-0.43,-0.35,-18.80,14.47,-4.82
1777399805074,2432535,-0.70,-0.41,-0.37,-19.47,18.25,-2.14
1777399805074,2432545,-0.72,-0.41,-0.40,-20.45,20.26,1.10
1777399805074,2432555,-0.75,-0.40,-0.43,-21.97,21.18,2.32
1777399805074,2432565,-0.76,-0.40,-0.47,-23.32,21.00,1.59
1777399805075,2432575,-0.78,-0.39,-0.50,-23.38,20.81,-0.61
1777399805075,2432585,-0.77,-0.38,-0.54,-22.22,20.51,-3.85
1777399805075,2432605,-0.76,-0.37,-0.61,-8.54,21.06,-1.40
1777399805075,2432625,-0.77,-0.37,-0.59,5.92,20.02,-1.10
1777399805076,2432645,-0.76,-0.39,-0.55,14.22,6.53,-4.94
1777399805076,2432655,-0.75,-0.40,-0.57,17.52,-2.99,-6.23
1777399805076,2432665,-0.72,-0.41,-0.59,21.85,-10.74,-7.45
1777399805076,2432675,-0.70,-0.41,-0.59,26.98,-14.40,-8.06
1777399805077,2432685,-0.69,-0.42,-0.55,32.35,-15.08,-7.14
1777399805077,2432695,-0.70,-0.43,-0.50,36.93,-15.63,-4.82
1777399805077,2432705,-0.72,-0.45,-0.45,39.61,-18.25,-3.23
1777399805077,2432715,-0.74,-0.47,-0.40,40.47,-23.25,-3.30
1777399805077,2432725,-0.75,-0.48,-0.37,40.83,-30.03,-4.58
1777399805078,2432735,-0.76,-0.49,-0.34,41.56,-37.17,-5.86
1777399805078,2432745,-0.75,-0.50,-0.32,42.36,-43.58,-6.47
1777399805078,2432755,-0.74,-0.51,-0.30,42.60,-48.28,-6.90
1777399805078,2432765,-0.74,-0.52,-0.27,42.54,-50.66,-6.65
1777399805078,2432775,-0.73,-0.53,-0.25,42.11,-51.27,-5.62
1777399805079,2432785,-0.71,-0.52,-0.22,40.83,-50.60,-4.58
1777399805079,2432795,-0.69,-0.51,-0.21,38.15,-49.07,-3.42
1777399805079,2432805,-0.67,-0.52,-0.21,34.67,-45.84,-1.65
1777399805079,2432815,-0.69,-0.53,-0.21,30.64,-41.08,1.65
1777399805079,2432825,-0.66,-0.50,-0.21,27.71,-36.19,6.71
1777399805080,2432835,-0.67,-0.45,-0.19,25.15,-30.03,11.47
1777399805080,2432845,-0.68,-0.51,-0.18,20.81,-26.67,17.70
1777399805081,2432855,-0.68,-0.59,-0.20,17.70,-26.79,21.30
1777399805081,2432865,-0.69,-0.60,-0.19,18.86,-29.30,20.69
1777399805081,2432875,-0.68,-0.60,-0.24,23.93,-34.06,17.88
1777399805081,2432885,-0.71,-0.63,-0.28,33.94,-37.11,13.12
1777399805082,2432895,-0.72,-0.63,-0.25,45.53,-41.26,7.20
1777399805082,2432905,-0.73,-0.57,-0.23,57.68,-47.42,2.75
1777399805082,2432915,-0.76,-0.54,-0.17,65.19,-51.94,1.83
1777399805082,2432925,-0.76,-0.57,-0.20,65.19,-57.74,2.14
1777399805082,2432945,-0.82,-0.64,-0.12,62.13,-75.26,-12.88
1777399805083,2432965,-0.83,-0.66,-0.27,86.43,-71.96,-38.39
1777399805083,2432985,-0.98,-0.79,-0.33,104.25,-66.04,-37.66
1777399805083,2433005,-0.91,-0.59,0.25,62.19,-66.71,-45.10
1777399805083,2433015,-0.59,-1.31,0.08,26.18,-73.00,-44.98
1777399805084,2433025,-1.13,-1.08,-0.38,31.19,-70.13,-67.75
1777399805084,2433035,-0.94,-0.92,-0.21,53.89,-60.85,-90.76
1777399805084,2433045,-0.96,-0.66,-0.08,62.74,-56.52,-103.33
1777399805084,2433055,-0.72,-0.36,0.01,76.23,-61.22,-99.55
1777399805084,2433065,-0.87,-0.33,-0.13,92.10,-64.21,-75.87
1777399805085,2433075,-0.80,-0.45,-0.03,88.68,-53.89,-53.83
1777399805085,2433085,-0.73,-0.57,0.09,73.00,-40.77,-43.33
1777399805085,2433095,-0.77,-0.63,0.18,51.21,-33.02,-40.28
1777399805086,2433105,-0.82,-0.64,0.26,30.70,-35.83,-40.34
1777399805086,2433115,-0.78,-0.49,0.14,21.36,-50.23,-36.87
1777399805086,2433125,-0.70,-0.48,0.04,20.45,-64.21,-24.11
1777399805087,2433135,-0.68,-0.45,0.01,12.08,-71.11,-8.79
1777399805087,2433145,-0.66,-0.38,-0.18,8.61,-73.12,5.13
1777399805087,2433155,-0.68,-0.49,-0.01,5.31,-63.48,18.80
1777399805088,2433165,-0.75,-0.62,0.12,-2.08,-57.86,26.92
1777399805088,2433175,-0.85,-0.73,0.16,-7.08,-59.81,28.99
1777399805088,2433185,-0.88,-0.75,0.08,-9.40,-66.71,21.55
1777399805089,2433195,-0.93,-0.77,0.07,-3.48,-73.43,9.34
1777399805089,2433205,-0.88,-0.69,0.10,-6.23,-74.04,-1.89
1777399805089,2433215,-0.83,-0.60,0.07,-7.26,-73.43,-3.85
1777399805089,2433225,-0.78,-0.54,0.05,-4.94,-68.73,2.62
1777399805091,2433235,-0.68,-0.50,0.06,-5.74,-57.80,13.18
1777399805092,2433245,-0.64,-0.48,0.11,-1.65,-43.15,24.48
1777399805092,2433255,-0.58,-0.46,0.10,1.89,-27.89,35.28
1777399805092,2433265,-0.57,-0.60,0.06,10.19,-10.99,47.49
1777399805092,2433275,-0.68,-0.94,-0.05,7.93,47.73,21.48
1777399805093,2433295,-0.74,-0.74,0.20,44.56,57.37,6.16
1777399805093,2433315,-0.78,-0.52,0.25,45.10,58.72,-4.82
1777399805093,2433335,-0.87,-0.53,0.32,65.31,66.77,3.48
1777399805094,2433345,-0.87,-0.62,0.32,77.27,67.44,10.31
1777399805094,2433355,-0.75,-0.71,0.30,79.41,68.91,16.78
1777399805094,2433365,-0.80,-0.69,0.32,60.24,62.32,9.40
1777399805094,2433375,-0.92,-0.66,0.32,24.72,45.41,-12.51
1777399805095,2433385,-0.79,-0.93,0.36,-7.26,20.94,-37.78
1777399805095,2433395,-0.69,-0.53,0.07,-35.16,-32.23,-93.75
1777399805095,2433405,-0.68,-0.60,0.14,-73.55,-67.69,-128.91
1777399805096,2433415,-0.59,-0.62,0.12,-91.06,-72.75,-119.81
1777399805096,2433425,-0.75,-0.70,0.08,-106.63,-96.80,-125.31
1777399805096,2433435,-0.86,-0.76,0.16,-96.01,-94.48,-131.96
1777399805096,2433445,-0.72,-0.72,0.27,-65.49,-65.80,-125.55
1777399805097,2433455,-0.71,-0.56,0.31,-30.40,-32.17,-106.63
1777399805097,2433465,-0.72,-0.49,0.24,-0.85,-4.15,-70.43
1777399805097,2433475,-0.82,-0.45,0.26,23.01,20.51,-29.85
1777399805097,2433485,-0.83,-0.37,0.26,54.26,35.71,-5.19
1777399805098,2433495,-0.73,-0.31,0.21,86.67,39.61,1.46
1777399805098,2433505,-0.62,-0.29,0.16,118.71,37.05,-2.20
1777399805098,2433515,-0.59,-0.30,0.08,147.95,32.29,-11.90
1777399805098,2433525,-0.61,-0.33,0.04,165.28,27.95,-23.32
1777399805099,2433535,-0.67,-0.43,0.06,168.21,21.85,-34.06
1777399805099,2433545,-0.62,-0.49,0.09,165.47,11.23,-48.52
1777399805099,2433555,-0.57,-0.51,0.08,162.41,0.31,-59.20
1777399805100,2433565,-0.52,-0.51,0.08,163.64,-5.00,-66.04
1777399805100,2433575,-0.49,-0.44,0.07,168.82,-8.12,-70.62
1777399805101,2433585,-0.47,-0.41,0.07,172.12,-12.33,-74.77
1777399805101,2433595,-0.52,-0.43,0.09,174.74,-18.43,-80.02
1777399805101,2433605,-0.52,-0.41,0.15,180.66,-27.71,-87.59
1777399805101,2433615,-0.51,-0.39,0.19,183.53,-42.54,-95.28
1777399805101,2433635,-0.54,-0.45,0.31,182.56,-95.21,-102.36
1777399805101,2433655,-0.43,-0.72,0.48,171.14,-127.08,-93.63
1777399805102,2433675,-0.31,-0.94,0.58,148.50,-138.00,-84.11
1777399805102,2433695,-0.36,-0.83,0.75,149.05,-147.46,-67.08
1777399805102,2433705,-0.37,-0.65,0.80,150.27,-147.16,-57.31
1777399805102,2433715,-0.34,-0.53,0.84,150.27,-142.03,-49.99
1777399805102,2433725,-0.29,-0.44,0.95,152.47,-134.46,-45.78
1777399805102,2433735,-0.25,-0.38,1.07,149.23,-129.52,-46.33
1777399805103,2433745,-0.19,-0.42,1.12,129.94,-125.85,-52.73
1777399805103,2433755,-0.15,-0.54,1.08,99.06,-119.26,-62.13
1777399805103,2433765,-0.12,-0.64,1.06,71.17,-107.48,-70.31
1777399805104,2433775,-0.12,-0.65,1.07,54.20,-95.95,-73.91
1777399805104,2433785,-0.13,-0.62,1.07,47.67,-87.89,-71.23
1777399805104,2433795,-0.12,-0.61,1.02,46.81,-78.98,-61.28
1777399805105,2433805,-0.12,-0.57,0.96,57.56,-66.28,-47.85
1777399805105,2433815,-0.11,-0.48,0.96,77.33,-54.87,-32.53
1777399805105,2433825,-0.06,-0.43,0.99,92.77,-49.74,-17.09
1777399805106,2433835,-0.03,-0.44,1.00,90.52,-51.03,-9.40
1777399805106,2433845,-0.00,-0.43,1.02,74.16,-54.32,-13.43
1777399805106,2433855,0.02,-0.45,1.04,47.73,-58.72,-23.93
1777399805107,2433865,0.02,-0.51,1.07,17.46,-62.07,-34.55
1777399805107,2433875,0.01,-0.59,1.09,-8.79,-62.62,-42.42
1777399805107,2433885,0.01,-0.63,1.14,-21.85,-59.75,-45.35
1777399805107,2433895,0.01,-0.60,1.12,-17.52,-55.36,-42.48
1777399805108,2433905,-0.00,-0.55,1.06,-1.77,-47.67,-34.30
1777399805108,2433915,-0.03,-0.52,0.99,17.52,-36.19,-23.32
1777399805108,2433925,-0.03,-0.48,0.91,36.93,-24.66,-12.02
1777399805109,2433935,-0.01,-0.45,0.84,54.93,-16.48,-0.98
1777399805109,2433945,0.02,-0.41,0.83,71.53,-13.24,8.73
1777399805109,2433955,0.04,-0.38,0.86,81.85,-18.19,15.26
1777399805109,2433965,0.04,-0.35,0.88,77.58,-46.57,5.13
1777399805109,2433985,0.06,-0.37,0.88,-1.95,-60.97,-28.14
1777399805110,2434005,-0.02,-0.44,1.08,-30.88,-53.16,-37.05
1777399805110,2434025,0.01,-0.15,0.90,85.02,-39.49,3.60
1777399805110,2434045,0.12,-0.33,0.91,106.26,6.84,44.31
1777399805110,2434055,0.12,-0.32,0.93,117.61,11.41,41.26
1777399805110,2434065,0.09,-0.22,1.01,120.91,5.31,29.60
1777399805110,2434075,-0.00,-0.20,1.09,114.69,-7.69,17.40
1777399805110,2434085,-0.02,-0.19,1.06,103.52,-22.71,10.50
1777399805110,2434095,0.01,-0.19,1.04,91.06,-32.04,8.54
1777399805111,2434105,0.05,-0.20,1.03,76.23,-34.85,5.07
1777399805111,2434115,0.07,-0.17,1.03,60.49,-32.04,-1.10
1777399805111,2434125,0.05,-0.16,1.02,44.80,-23.07,-7.08
1777399805111,2434135,0.06,-0.17,0.99,34.67,-12.02,-11.23
1777399805111,2434145,0.06,-0.18,0.97,29.54,-4.21,-14.40
1777399805111,2434155,0.06,-0.17,0.94,32.10,-1.22,-16.42
1777399805111,2434165,0.06,-0.17,0.91,41.75,-2.87,-15.26
1777399805111,2434175,0.08,-0.18,0.88,59.45,-7.63,-9.95
1777399805111,2434185,0.11,-0.20,0.89,81.60,-14.95,-2.32
1777399805112,2434195,0.11,-0.15,0.90,105.83,-22.40,6.10
1777399805112,2434205,0.08,-0.11,0.93,127.01,-28.63,15.50
1777399805112,2434215,0.09,-0.10,0.93,143.13,-34.06,23.38
1777399805112,2434225,0.13,-0.08,0.92,157.59,-37.48,28.50
1777399805112,2434235,0.15,-0.02,0.95,171.57,-39.12,31.49
1777399805112,2434245,0.03,0.03,1.51,150.09,19.35,24.29
1777399805112,2434255,-0.33,0.28,1.59,96.56,75.01,-1.59
1777399805112,2434265,0.07,0.00,1.03,-5.55,-5.49,-11.78
1777399805112,2434275,0.25,0.20,0.96,-6.59,-11.72,-20.20
1777399805113,2434285,0.11,0.05,1.01,-4.76,-9.95,-12.51
1777399805113,2434295,0.03,-0.00,0.96,2.93,-6.71,-2.14
1777399805113,2434305,0.08,0.04,0.99,2.32,-4.09,-4.64
1777399805113,2434325,0.08,0.04,1.01,0.00,-5.25,-5.07
1777399805113,2434345,0.09,0.05,1.01,2.75,-2.62,-4.09
1777399805113,2434365,0.07,0.03,1.00,0.37,-5.31,-4.58
1777399805113,2434385,0.08,0.03,1.00,1.28,-4.46,-5.80
1777399805113,2434395,0.07,0.03,1.01,0.92,-4.70,-6.10
1777399805113,2434405,0.08,0.03,1.00,-0.73,-5.92,-6.65
1777399805113,2434415,0.08,0.03,1.00,-1.95,-6.53,-6.96
1777399805113,2434425,0.08,0.04,1.00,-1.46,-6.04,-6.90
1777399805114,2434435,0.09,0.04,1.00,-0.73,-5.62,-6.65
1777399805114,2434445,0.09,0.02,0.99,0.43,-5.31,-6.41
1777399805114,2434455,0.05,-0.01,0.94,4.27,-2.20,-9.28
1777399805114,2434465,0.07,0.08,1.04,4.64,1.89,-16.97
1777399805114,2434475,0.08,0.04,0.99,-0.12,-1.46,-19.78
1777399805114,2434485,0.07,0.03,1.02,0.12,-1.83,-19.71
1777399805115,2434495,0.08,0.04,1.02,2.14,-2.20,-16.91
1777399805115,2434505,0.08,0.01,0.99,0.49,-3.72,-11.84
1777399805115,2434515,0.08,0.02,1.00,0.92,-3.05,-9.46
1777399805115,2434525,0.09,0.05,1.00,1.46,-2.69,-8.67
1777399805116,2434535,0.10,0.07,1.00,0.37,-3.85,-8.06
1777399805116,2434545,0.09,0.06,1.00,-0.55,-4.27,-7.32
1777399805116,2434555,0.07,0.03,1.00,1.04,-4.03,-5.74
1777399805116,2434565,0.08,0.02,1.00,0.92,-4.76,-5.49
1777399805116,2434575,0.07,0.03,1.00,1.34,-4.52,-5.62
1777399805117,2434585,0.07,0.03,1.00,1.89,-4.33,-5.43
1777399805117,2434595,0.08,0.03,1.00,1.95,-4.27,-5.19
1777399805117,2434605,0.08,0.02,1.00,1.77,-4.46,-5.43
1777399805117,2434615,0.07,0.03,1.00,1.22,-4.64,-5.98
1777399805117,2434625,0.08,0.03,1.00,0.79,-4.82,-5.86
1777399805118,2434635,0.07,0.03,1.00,0.98,-4.76,-5.49
1777399805118,2434645,0.07,0.04,1.00,1.65,-4.70,-5.19
1777399805118,2434655,0.06,0.04,1.00,1.89,-5.00,-6.96
1777399805118,2434675,0.08,0.02,1.00,2.50,-4.70,-7.45
1777399805118,2434695,0.06,0.04,1.00,2.81,-3.54,-7.20
1777399805118,2434715,0.08,0.03,1.00,0.85,-4.21,-5.55
1777399805118,2434735,0.07,0.03,0.99,0.79,-4.82,-5.07
1777399805118,2434745,0.05,0.04,1.01,0.73,-5.00,-4.58
1777399805119,2434755,0.08,0.02,0.99,-0.61,-5.62,-4.70
1777399805119,2434765,0.08,0.01,1.01,-0.24,-4.82,-4.82
1777399805119,2434775,0.08,0.02,1.00,0.18,-5.00,-5.25
1777399805119,2434785,0.08,0.03,0.99,0.00,-4.94,-5.80
1777399805119,2434795,0.07,0.02,1.00,-0.24,-5.00,-5.86
1777399805119,2434805,0.08,0.03,0.99,-0.98,-5.31,-5.74
1777399805119,2434815,0.07,0.02,1.01,-1.22,-5.19,-5.55
1777399805119,2434825,0.07,0.02,1.00,-0.67,-5.07,-5.37
1777399805119,2434835,0.07,0.02,1.00,-0.31,-5.19,-5.00
1777399805119,2434845,0.08,0.02,1.00,0.31,-5.19,-4.64
1777399805120,2434855,0.08,0.02,1.00,0.92,-4.82,-5.07
1777399805120,2434865,0.08,0.02,1.00,1.22,-4.64,-5.68
1777399805120,2434875,-0.05,0.04,0.97,1.34,-4.39,-4.46
1777399805120,2434885,0.02,0.05,0.90,-3.54,-4.15,4.21
1777399805120,2434895,0.13,-0.01,1.00,-15.75,-3.78,14.28
1777399805120,2434905,0.10,0.14,0.59,-23.13,-1.83,14.10
1777399805120,2434915,0.45,-0.09,0.86,-65.92,5.00,5.68
1777399805120,2434925,0.03,-0.01,1.04,-67.87,53.65,-3.66
1777399805120,2434935,-0.00,-0.11,1.11,-73.49,61.89,-5.92
1777399805120,2434945,-0.01,-0.07,1.13,-60.42,52.67,-8.18
1777399805121,2434955,-0.02,-0.05,1.21,-46.02,40.10,-7.69
1777399805121,2434965,-0.07,-0.14,1.28,-30.27,22.52,-5.37
1777399805121,2434975,-0.00,-0.06,1.01,-1.22,-1.89,-3.97
1777399805121,2434985,0.02,-0.04,0.97,5.25,-7.57,-3.42
1777399805121,2434995,0.04,-0.06,0.99,1.59,-4.39,-1.16
1777399805121,2435015,0.02,-0.05,1.01,3.48,-5.37,-4.82
1777399805121,2435035,0.02,-0.03,1.00,3.54,-5.31,-4.88
1777399805121,2435055,0.02,-0.05,1.00,2.87,-4.70,-5.00
1777399805121,2435075,0.02,-0.05,1.00,2.56,-4.76,-4.58
1777399805121,2435085,0.02,-0.06,1.00,2.08,-4.33,-4.15
1777399805122,2435095,0.02,-0.06,1.00,2.01,-4.27,-3.78
1777399805122,2435105,0.02,-0.06,1.00,2.20,-4.52,-3.91
1777399805122,2435115,0.02,-0.06,1.00,2.20,-4.58,-4.15
1777399805122,2435125,0.02,-0.06,1.00,2.01,-4.58,-4.52
1777399805122,2435135,0.02,-0.06,1.01,1.95,-4.64,-4.94
1777399805122,2435145,0.02,-0.05,1.00,2.01,-4.88,-5.13
1777399805122,2435155,0.02,-0.05,1.00,2.75,-5.25,-4.88
1777399805122,2435165,0.02,-0.05,1.00,3.36,-5.31,-4.58
1777399805122,2435175,0.03,-0.05,1.00,3.66,-5.43,-4.39
1777399805122,2435185,0.02,-0.06,1.00,3.66,-5.37,-3.91
1777399805122,2435195,0.02,-0.06,1.00,3.42,-5.19,-3.48
1777399805123,2435205,0.02,-0.06,1.00,3.23,-4.88,-3.48
1777399805123,2435215,0.02,-0.06,1.00,2.87,-4.82,-3.60
1777399805123,2435225,0.02,-0.05,1.00,2.81,-4.76,-3.72
1777399805123,2435235,0.01,-0.05,1.00,3.17,-4.88,-3.42
1777399805123,2435245,-0.01,-0.04,1.00,3.17,-4.94,-2.87
1777399805123,2435255,0.01,-0.04,0.98,3.97,-5.00,-1.53
1777399805123,2435265,0.11,0.06,0.71,2.50,-2.75,0.92
1777399805123,2435275,0.13,0.02,0.78,-17.64,19.23,2.87
1777399805123,2435285,-0.08,-0.06,0.93,-7.93,21.85,1.22
1777399805123,2435295,-0.01,-0.17,0.96,11.72,-6.77,-1.83
1777399805123,2435305,0.09,-0.02,0.94,2.38,-4.58,-9.09
1777399805124,2435315,0.04,-0.03,0.94,0.79,-4.82,-5.31
1777399805124,2435325,-0.00,-0.09,0.99,5.43,-4.76,-0.49
1777399805124,2435335,0.01,-0.08,1.03,6.16,-4.46,-2.38
1777399805124,2435345,0.01,-0.05,1.01,3.42,-4.94,-4.21
1777399805124,2435365,0.01,-0.07,1.00,3.48,-4.70,-3.97
1777399805124,2435385,0.02,-0.03,1.00,2.87,-4.88,-2.99
1777399805124,2435405,0.01,-0.06,1.01,5.13,-4.64,-3.78
1777399805124,2435425,0.02,-0.05,1.00,4.15,-4.58,-5.49
1777399805124,2435435,0.01,-0.07,1.00,4.88,-4.52,-5.98
1777399805124,2435445,0.02,-0.08,1.00,5.07,-4.64,-4.76
1777399805124,2435455,0.02,-0.09,0.92,6.90,-4.82,-2.87
1777399805125,2435465,0.03,-0.06,0.90,24.41,-5.19,-0.37
1777399805125,2435475,0.03,-0.04,0.91,52.00,-5.49,3.66
1777399805125,2435485,0.03,-0.00,0.95,77.27,-5.86,8.00
1777399805125,2435495,0.07,0.23,1.21,89.05,-5.68,11.96
1777399805125,2435505,-0.03,-0.05,1.00,29.42,-2.14,8.00
1777399805125,2435515,-0.01,-0.07,1.00,1.65,-6.59,-0.55
1777399805125,2435525,0.02,-0.00,0.99,2.14,-5.07,-6.29
1777399805125,2435535,0.01,-0.01,1.00,2.69,-4.27,-5.62
1777399805125,2435545,0.01,-0.00,1.00,2.93,-4.27,-4.94
1777399805125,2435555,0.01,-0.00,1.01,2.69,-4.39,-5.43
1777399805126,2435565,0.01,-0.00,1.00,2.38,-4.88,-4.64
1777399805126,2435575,0.01,-0.00,1.00,2.50,-4.58,-4.46
1777399805126,2435585,0.01,-0.00,1.00,2.62,-4.52,-4.21
1777399805126,2435595,0.01,-0.01,1.01,2.50,-4.64,-4.33
1777399805126,2435605,0.01,-0.01,1.00,2.32,-4.76,-4.64
1777399805126,2435615,0.01,-0.01,1.00,2.38,-4.70,-4.58
1777399805126,2435625,0.01,-0.01,1.00,2.50,-4.64,-4.52
1777399805126,2435635,0.01,-0.00,1.00,2.38,-4.76,-4.58
1777399805126,2435645,0.01,-0.00,1.00,2.38,-4.76,-4.70
1777399805126,2435655,0.01,-0.00,1.00,2.38,-4.58,-4.64
1777399805126,2435665,0.01,-0.00,1.00,2.38,-4.58,-4.70
1777399805127,2435675,0.01,-0.00,1.00,2.32,-4.64,-4.58
1777399805127,2435685,0.01,-0.00,1.00,2.26,-4.76,-4.64
1777399805127,2435705,0.01,-0.01,1.00,2.44,-4.76,-4.21
1777399805127,2435725,0.01,-0.00,1.00,2.38,-4.94,-4.03
1777399805127,2435745,0.01,-0.01,1.00,2.26,-4.94,-4.39
1777399805127,2435765,0.01,-0.01,1.01,2.50,-4.33,-4.82
1777399805127,2435775,0.01,-0.01,1.01,2.32,-4.46,-4.88
1777399805127,2435785,0.01,-0.01,1.00,2.26,-4.64,-4.88
1777399805127,2435795,0.01,-0.01,1.01,2.26,-4.64,-4.88
1777399805127,2435805,0.01,-0.01,1.00,2.32,-4.52,-4.58
1777399805128,2435815,0.01,-0.01,1.01,2.56,-4.70,-4.15
1777399805128,2435825,0.01,-0.01,1.00,2.50,-4.70,-4.33
1777399805128,2435835,0.01,-0.00,1.00,2.38,-4.70,-4.64
1777399805128,2435845,0.01,-0.01,1.00,2.32,-4.70,-4.64
1777399805128,2435855,0.01,-0.01,1.00,2.32,-4.76,-4.70
1777399805128,2435865,0.01,-0.01,1.00,2.38,-4.76,-4.70
1777399805128,2435875,0.01,-0.01,1.00,2.38,-4.76,-4.64
1777399805128,2435885,0.01,-0.00,1.00,2.38,-4.70,-4.70
1777399805128,2435895,0.01,-0.01,1.00,2.38,-4.52,-4.82
1777399805128,2435905,0.01,-0.01,1.00,2.38,-4.58,-4.88
1777399805129,2435915,0.01,-0.00,1.00,2.26,-4.70,-4.88
1777399805129,2435925,0.01,-0.00,1.00,2.26,-4.64,-4.88
1777399805129,2435935,0.01,-0.01,1.00,2.32,-4.64,-4.88
1777399805129,2435945,0.01,-0.01,1.00,2.38,-4.70,-4.64
1777399805129,2435955,0.01,-0.01,1.00,2.56,-4.70,-4.27
1777399805129,2435965,0.01,-0.01,1.00,2.44,-4.70,-4.33
1777399805129,2435975,0.01,-0.01,1.00,2.50,-4.76,-4.52
1777399805129,2435985,0.01,-0.01,1.00,2.50,-4.76,-4.52
1777399805129,2435995,0.01,-0.01,1.00,2.44,-4.70,-4.52
1777399805130,2436005,0.01,-0.01,1.00,2.44,-4.70,-4.64
1777399805130,2436015,0.01,-0.01,1.00,2.44,-4.76,-4.64
1777399805130,2436025,0.01,-0.00,1.00,2.32,-4.70,-4.58
1777399805130,2436035,0.01,-0.00,1.00,2.38,-4.70,-4.70
1777399805130,2436055,0.01,-0.01,1.00,2.32,-4.64,-4.94
1777399805130,2436075,0.01,-0.00,1.00,2.32,-4.76,-4.88
1777399805130,2436095,0.01,-0.01,1.00,2.38,-4.64,-4.70
1777399805130,2436115,0.01,-0.00,1.00,2.38,-4.70,-4.64
1777399805130,2436125,0.01,-0.00,1.00,2.56,-4.76,-4.46
1777399805130,2436135,0.01,-0.00,1.00,2.50,-4.82,-4.70
1777399805131,2436145,0.01,-0.00,1.00,2.32,-4.70,-4.70
1777399805131,2436155,0.01,-0.01,1.00,2.44,-4.70,-4.70
1777399805131,2436165,0.01,-0.01,1.00,2.44,-4.70,-4.70
1777399805131,2436175,0.01,-0.01,1.00,2.32,-4.70,-4.82
1777399805131,2436185,0.01,-0.00,1.00,2.26,-4.64,-5.00
1777399805131,2436195,0.01,-0.00,1.00,2.26,-4.64,-5.07
1777399805131,2436205,0.01,-0.00,1.00,2.32,-4.64,-5.00
1777399805131,2436215,0.01,-0.01,1.00,2.44,-4.70,-4.58
1777399805131,2436225,0.01,-0.01,1.00,2.69,-4.82,-4.15
1777399805131,2436235,0.01,-0.01,1.00,2.50,-4.76,-4.33
1777399805131,2436245,0.01,-0.00,1.00,2.44,-4.70,-4.58
1777399805132,2436255,0.01,-0.00,1.00,2.50,-4.76,-4.64
1777399805132,2436265,0.01,-0.00,1.00,2.38,-4.58,-4.82
1777399805132,2436275,0.01,-0.00,1.00,2.26,-4.58,-4.94
1777399805132,2436285,0.02,-0.00,1.00,2.26,-4.64,-5.00
1777399805132,2436295,0.01,-0.00,1.00,2.32,-4.70,-4.82
1777399805132,2436305,0.01,-0.00,1.00,2.38,-4.70,-4.70
1777399805132,2436315,0.01,-0.01,1.00,2.44,-4.64,-4.39
1777399805132,2436325,0.01,-0.01,1.00,2.62,-4.70,-4.27
1777399805132,2436335,0.01,-0.01,1.00,2.50,-4.70,-4.33
1777399805132,2436345,0.01,-0.00,1.00,2.44,-4.70,-4.52
1777399805132,2436355,0.01,-0.01,1.00,2.38,-4.70,-4.58
1777399805133,2436365,0.01,-0.00,1.00,2.32,-4.58,-4.70
1777399805133,2436375,0.01,-0.01,1.00,2.38,-4.64,-4.64
1777399805133,2436395,0.01,-0.00,1.00,2.38,-4.64,-4.39
1777399805133,2436415,0.01,-0.01,1.00,2.56,-4.70,-3.97
1777399805133,2436435,0.01,-0.00,1.00,2.50,-4.70,-4.52
1777399805133,2436455,0.02,-0.00,1.00,2.26,-4.70,-4.94
1777399805133,2436465,0.01,-0.01,1.00,2.32,-4.64,-4.70
1777399805133,2436475,0.01,-0.00,1.00,2.38,-4.70,-4.46
1777399805133,2436485,0.01,-0.01,1.00,2.38,-4.70,-4.46
1777399805133,2436495,0.01,-0.01,1.00,2.38,-4.76,-4.52
1777399805134,2436505,0.01,-0.00,1.00,2.38,-4.70,-4.70
1777399805134,2436515,0.01,-0.00,1.00,2.20,-4.58,-4.94
1777399805134,2436525,0.01,-0.01,1.00,2.32,-4.76,-4.76
1777399805134,2436535,0.01,-0.00,1.00,2.44,-4.76,-4.64
1777399805134,2436545,0.01,-0.00,1.00,2.50,-4.70,-4.46
1777399805134,2436555,0.01,-0.01,1.00,2.56,-4.76,-4.21
1777399805134,2436565,0.01,-0.00,1.00,2.44,-4.64,-4.27
1777399805134,2436575,0.01,-0.01,1.00,2.38,-4.70,-4.58
1777399805134,2436585,0.01,-0.00,1.00,2.44,-4.70,-4.58
1777399805134,2436595,0.01,-0.00,1.00,2.50,-4.70,-4.27
1777399805134,2436605,0.01,-0.00,1.00,2.38,-4.70,-4.58
1777399805135,2436615,0.02,-0.00,1.00,2.26,-4.70,-4.82
1777399805135,2436625,0.01,-0.00,1.00,2.32,-4.64,-4.82
1777399805135,2436635,0.01,-0.00,1.00,2.38,-4.70,-4.82
1777399805135,2436645,0.01,-0.00,1.00,2.38,-4.64,-4.64
1777399805135,2436655,0.01,-0.01,1.00,2.38,-4.70,-4.33
1777399805135,2436665,0.01,-0.00,1.00,2.44,-4.76,-4.46
1777399805135,2436675,0.01,-0.00,1.00,2.38,-4.76,-4.64
1777399805135,2436685,0.01,-0.00,1.00,2.32,-4.76,-4.76
1777399805135,2436695,0.01,-0.00,1.00,2.32,-4.76,-4.94
1777399805135,2436705,0.01,-0.00,1.00,2.20,-4.70,-5.00
1777399805136,2436715,0.01,-0.00,1.00,2.20,-4.64,-5.00
1777399805136,2436725,0.01,-0.00,1.00,2.26,-4.58,-4.94
1777399805136,2436745,0.02,-0.00,1.00,2.32,-4.64,-4.76
1777399805136,2436765,0.01,-0.00,1.00,2.50,-4.70,-4.27
1777399805136,2436785,0.01,-0.00,1.00,2.38,-4.64,-4.46
1777399805136,2436805,0.01,-0.00,1.00,2.44,-4.70,-4.58
1777399805136,2436815,0.01,-0.01,1.00,2.56,-4.70,-4.39
1777399805136,2436825,0.01,-0.00,1.00,2.56,-4.70,-4.15
1777399805136,2436835,0.01,-0.00,1.00,2.50,-4.76,-4.33
1777399805136,2436845,0.01,-0.01,1.00,2.38,-4.76,-4.46
1777399805136,2436855,0.01,-0.00,1.00,2.32,-4.76,-4.70
1777399805137,2436865,0.01,-0.00,1.00,2.20,-4.64,-4.88
1777399805137,2436875,0.01,-0.00,1.00,2.44,-4.76,-4.52
1777399805137,2436885,0.01,-0.01,1.00,2.62,-4.76,-4.09
1777399805137,2436895,0.01,-0.01,1.00,2.50,-4.70,-4.39
1777399805137,2436905,0.01,-0.01,1.00,2.26,-4.70,-4.76
1777399805137,2436915,0.01,-0.01,1.00,2.44,-4.70,-4.58
1777399805137,2436925,0.01,-0.01,1.00,2.50,-4.70,-4.33
1777399805137,2436935,0.01,-0.00,1.00,2.50,-4.70,-4.46
1777399805137,2436945,0.01,-0.01,1.00,2.44,-4.70,-4.64
1777399805137,2436955,0.01,-0.01,1.00,2.38,-4.76,-4.64
1777399805138,2436965,0.01,-0.01,1.00,2.32,-4.64,-4.76
1777399805138,2436975,0.01,-0.00,1.00,2.38,-4.70,-4.58
1777399805138,2436985,0.01,-0.00,1.00,2.44,-4.70,-4.39
1777399805138,2436995,0.01,-0.01,1.00,2.50,-4.64,-4.52
1777399805138,2437005,0.01,-0.01,1.00,2.44,-4.70,-4.52
1777399805138,2437015,0.01,-0.01,1.00,2.50,-4.70,-4.58
1777399805138,2437025,0.01,-0.01,1.00,2.38,-4.64,-4.58
1777399805138,2437035,0.01,-0.01,1.00,2.38,-4.70,-4.58
1777399805138,2437045,0.01,-0.01,1.00,2.38,-4.64,-4.64
1777399805138,2437055,0.01,-0.00,1.00,2.26,-4.64,-4.82
1777399805139,2437065,0.01,-0.00,1.00,2.20,-4.64,-5.00
1777399805139,2437075,0.01,-0.00,1.00,2.26,-4.70,-4.70
1777399805139,2437095,0.01,-0.01,1.00,2.50,-4.70,-4.27
1777399805139,2437115,0.01,-0.00,1.00,2.50,-4.70,-4.27
1777399805139,2437135,0.01,-0.01,1.00,2.32,-4.76,-4.70
1777399805139,2437145,0.01,-0.00,1.00,2.32,-4.70,-4.70
1777399805139,2437155,0.01,-0.00,1.00,2.38,-4.64,-4.64
1777399805139,2437165,0.01,-0.00,1.00,2.44,-4.76,-4.46
1777399805139,2437175,0.01,-0.00,1.00,2.62,-4.70,-4.09
1777399805139,2437185,0.01,-0.00,1.00,2.50,-4.64,-4.33
1777399805139,2437195,0.01,-0.01,1.00,2.44,-4.70,-4.58
1777399805140,2437205,0.01,-0.01,1.00,2.44,-4.70,-4.39
1777399805140,2437215,0.01,-0.00,1.00,2.62,-4.70,-4.09
1777399805140,2437225,0.01,-0.00,1.00,2.50,-4.70,-4.33
1777399805140,2437235,0.01,-0.00,1.00,2.38,-4.70,-4.70
1777399805140,2437245,0.01,-0.00,1.00,2.32,-4.70,-4.46
1777399805140,2437255,0.01,-0.00,1.00,2.50,-4.76,-4.46
1777399805140,2437265,0.01,-0.00,1.00,2.44,-4.70,-4.52
1777399805140,2437275,0.01,-0.01,1.00,2.50,-4.70,-4.64
1777399805140,2437285,0.01,-0.01,1.00,2.50,-4.70,-4.39
1777399805140,2437295,0.01,-0.01,1.00,2.56,-4.64,-4.21
1777399805141,2437305,0.01,-0.00,1.00,2.50,-4.64,-4.46
1777399805141,2437315,0.01,-0.00,1.00,2.32,-4.58,-4.94
1777399805141,2437325,0.01,-0.00,1.00,2.38,-4.58,-4.76
1777399805141,2437335,0.01,-0.01,1.00,2.38,-4.58,-4.46
1777399805141,2437345,0.01,-0.00,1.00,2.56,-4.76,-4.39
1777399805141,2437355,0.01,-0.01,1.00,2.56,-4.76,-4.21
1777399805141,2437365,0.01,-0.01,1.00,2.50,-4.64,-4.33
1777399805141,2437375,0.01,-0.00,1.00,2.44,-4.70,-4.64
1777399805141,2437385,0.01,-0.00,1.00,2.26,-4.64,-4.88
1777399805141,2437395,0.02,-0.00,1.00,2.26,-4.64,-5.07
1777399805141,2437405,0.01,-0.01,1.00,2.32,-4.70,-5.00
1777399805142,2437415,0.01,-0.00,1.00,2.32,-4.64,-4.70
1777399805142,2437435,0.01,-0.00,1.00,2.44,-4.70,-4.58
1777399805142,2437455,0.01,-0.00,1.00,2.26,-4.58,-5.00
1777399805142,2437475,0.01,-0.00,1.00,2.44,-4.64,-4.64
1777399805142,2437495,0.01,-0.00,1.00,2.62,-4.64,-4.21
1777399805142,2437505,0.01,-0.00,1.00,2.62,-4.76,-4.15
1777399805142,2437515,0.01,-0.00,1.00,2.38,-4.76,-4.46
1777399805142,2437525,0.01,-0.00,1.00,2.20,-4.70,-4.82
1777399805142,2437535,0.01,-0.00,1.00,2.32,-4.70,-4.70
1777399805142,2437545,0.01,-0.01,1.00,2.38,-4.70,-4.46
1777399805143,2437555,0.02,-0.00,1.00,2.26,-4.76,-4.76
1777399805143,2437565,0.01,-0.00,1.00,2.20,-4.70,-4.94
1777399805143,2437575,0.01,-0.00,1.00,2.20,-4.58,-4.82
1777399805143,2437585,0.01,-0.00,1.00,2.32,-4.70,-4.70
1777399805143,2437595,0.01,-0.01,1.00,2.26,-4.64,-4.70
1777399805143,2437605,0.01,-0.01,1.00,2.26,-4.64,-4.64
1777399805143,2437615,0.01,-0.01,1.00,2.44,-4.70,-4.33
1777399805143,2437625,0.01,-0.00,1.00,2.44,-4.76,-4.03
1777399805143,2437635,0.01,-0.00,1.00,2.32,-4.70,-4.46
1777399805143,2437645,0.01,-0.00,1.00,2.20,-4.70,-5.00
1777399805144,2437655,0.01,-0.01,1.00,2.38,-4.64,-4.58
1777399805144,2437665,0.01,-0.00,1.00,2.56,-4.64,-4.09
1777399805144,2437675,0.01,-0.01,1.00,2.50,-4.64,-4.27
1777399805144,2437685,0.01,-0.00,1.00,2.38,-4.64,-4.46
1777399805144,2437695,0.01,-0.00,1.00,2.26,-4.64,-4.70
1777399805144,2437705,0.01,-0.00,1.00,2.32,-4.70,-4.94
1777399805144,2437715,0.01,-0.00,1.00,2.32,-4.64,-4.82
1777399805144,2437725,0.01,-0.00,1.00,2.38,-4.64,-4.58
1777399805144,2437735,0.01,-0.00,1.00,2.20,-4.64,-4.82
1777399805144,2437745,0.01,-0.01,1.00,2.26,-4.64,-5.00
1777399805144,2437755,0.01,-0.01,1.00,2.38,-4.64,-4.58
1777399805145,2437765,0.01,-0.01,1.00,2.56,-4.76,-4.39
1777399805145,2437785,0.01,-0.00,1.00,2.38,-4.64,-4.76
1777399805145,2437805,0.01,-0.01,1.02,2.44,-4.70,-4.33
1777399805145,2437825,0.01,-0.01,1.00,2.56,-4.64,-4.09
1777399805145,2437835,0.01,-0.01,0.99,2.62,-4.76,-4.09
1777399805145,2437845,0.01,-0.00,1.00,2.50,-4.58,-4.33
1777399805145,2437855,0.01,-0.01,1.02,2.44,-4.64,-4.52
1777399805145,2437865,0.01,-0.00,0.98,2.44,-4.70,-4.39
1777399805145,2437875,0.01,-0.01,1.02,2.56,-4.76,-4.09
1777399805145,2437885,0.01,-0.00,0.99,2.44,-4.70,-4.39
1777399805146,2437895,0.02,-0.00,1.01,2.32,-4.64,-4.70
1777399805146,2437905,0.01,-0.01,1.00,2.44,-4.76,-4.58
1777399805146,2437915,0.01,-0.01,1.00,2.44,-4.76,-4.27
1777399805146,2437925,0.01,-0.00,1.01,2.38,-4.70,-4.58
1777399805146,2437935,0.01,-0.00,1.00,2.20,-4.70,-5.13
1777399805146,2437945,0.01,-0.01,1.01,2.26,-4.64,-4.88
1777399805146,2437955,0.02,-0.00,1.00,2.32,-4.70,-4.76
1777399805146,2437965,0.01,-0.00,1.00,2.32,-4.64,-4.82
1777399805146,2437975,0.01,-0.00,1.00,2.32,-4.58,-4.88
1777399805146,2437985,0.01,-0.01,1.00,2.32,-4.70,-4.58
1777399805146,2437995,0.01,-0.01,1.00,2.56,-4.70,-4.27
1777399805147,2438005,0.01,-0.01,1.00,2.44,-4.76,-4.33
1777399805147,2438015,0.01,-0.00,1.00,2.44,-4.76,-4.46
1777399805147,2438025,0.01,-0.00,1.00,2.44,-4.76,-4.27
1777399805147,2438035,0.01,-0.01,1.00,2.56,-4.64,-4.09
1777399805147,2438045,0.01,-0.00,1.00,2.56,-4.70,-4.15
1777399805147,2438055,0.01,-0.01,1.01,2.44,-4.76,-4.27
1777399805147,2438065,0.01,-0.01,1.00,2.38,-4.76,-4.39
1777399805147,2438075,0.01,-0.01,1.00,2.32,-4.70,-4.64
1777399805147,2438085,0.01,-0.01,1.00,2.38,-4.70,-4.76
1777399805147,2438095,0.01,-0.00,1.00,2.32,-4.64,-4.76
1777399805148,2438105,0.01,-0.00,1.00,2.44,-4.70,-4.64
1777399805148,2438125,0.01,-0.00,1.00,2.50,-4.64,-4.52
1777399805148,2438145,0.01,-0.01,1.00,2.44,-4.70,-4.46
1777399805148,2438165,0.01,-0.01,1.00,2.56,-4.70,-4.09
1777399805148,2438185,0.01,-0.00,1.00,2.26,-4.64,-4.88
1777399805148,2438195,0.01,-0.01,1.00,2.38,-4.64,-4.52
1777399805148,2438205,0.01,-0.00,0.99,2.50,-4.64,-4.27
1777399805148,2438215,0.02,-0.01,1.01,2.44,-4.64,-4.46
1777399805148,2438225,0.01,-0.00,1.00,2.44,-4.64,-4.76
1777399805149,2438235,0.01,-0.01,1.01,2.32,-4.64,-4.82
1777399805149,2438245,0.01,-0.00,1.00,2.32,-4.64,-4.88
1777399805149,2438255,0.01,-0.00,1.00,2.26,-4.70,-4.88
1777399805149,2438265,0.01,-0.00,1.00,2.32,-4.70,-4.94
1777399805149,2438275,0.01,-0.00,1.00,2.32,-4.70,-4.82
1777399805149,2438285,0.01,-0.01,1.00,2.38,-4.76,-4.58
1777399805149,2438295,0.02,-0.00,1.00,2.32,-4.70,-4.46
1777399805149,2438305,0.01,-0.00,1.00,2.38,-4.70,-4.46
1777399805149,2438315,0.02,-0.00,1.00,2.38,-4.64,-4.52
1777399805149,2438325,0.01,-0.01,1.00,2.32,-4.70,-4.64
1777399805150,2438335,0.01,-0.01,1.00,2.32,-4.70,-4.46
1777399805150,2438345,0.01,-0.00,1.00,2.56,-4.64,-4.27
1777399805150,2438355,0.01,-0.01,1.00,2.50,-4.70,-4.39
1777399805150,2438365,0.01,-0.00,1.00,2.50,-4.76,-4.52
1777399805150,2438375,0.01,-0.00,1.00,2.50,-4.64,-4.27
1777399805150,2438385,0.01,-0.01,1.00,2.50,-4.76,-3.91
1777399805150,2438395,0.01,-0.01,1.00,2.44,-4.70,-4.27
1777399805150,2438405,0.01,-0.00,1.00,2.32,-4.70,-4.64
1777399805150,2438415,0.01,-0.00,1.00,2.38,-4.76,-4.46
1777399805151,2438425,0.01,-0.01,1.00,2.44,-4.70,-4.27
1777399805151,2438435,0.01,-0.01,1.00,2.44,-4.70,-4.27
1777399805151,2438445,0.01,-0.01,1.00,2.50,-4.76,-4.39
1777399805151,2438455,0.01,-0.00,0.99,2.44,-4.64,-4.82
1777399805151,2438475,0.01,-0.01,1.00,2.44,-4.70,-4.64
1777399805151,2438495,0.01,-0.00,1.00,2.50,-4.70,-4.64
1777399805151,2438515,0.01,-0.01,1.00,2.56,-4.76,-4.03
1777399805151,2438535,0.01,-0.00,1.00,2.44,-4.76,-4.39
1777399805151,2438545,0.01,-0.00,1.00,2.50,-4.70,-4.39
1777399805151,2438555,0.01,-0.01,1.00,2.44,-4.64,-4.46
1777399805152,2438565,0.01,-0.00,1.00,2.56,-4.70,-4.21
1777399805152,2438575,0.01,-0.01,1.00,2.56,-4.70,-4.09
1777399805152,2438585,0.02,-0.00,1.00,2.44,-4.70,-4.52
1777399805152,2438595,0.01,-0.00,1.00,2.20,-4.64,-5.07
1777399805152,2438605,0.01,-0.01,1.00,2.38,-4.64,-4.64
1777399805152,2438615,0.01,-0.01,1.00,2.62,-4.82,-4.09
1777399805152,2438625,0.01,-0.00,1.00,2.44,-4.76,-4.52
1777399805152,2438635,0.01,-0.00,1.00,2.32,-4.64,-5.07
1777399805152,2438645,0.01,-0.01,1.00,2.44,-4.76,-4.76
1777399805153,2438655,0.01,-0.01,1.00,2.44,-4.70,-4.58
1777399805153,2438665,0.01,-0.00,1.00,2.44,-4.64,-4.46
1777399805153,2438675,0.01,-0.01,1.00,2.44,-4.64,-4.52
1777399805153,2438685,0.01,-0.00,1.00,2.32,-4.64,-4.76
1777399805153,2438695,0.01,-0.00,0.99,2.26,-4.70,-4.94
1777399805153,2438705,0.02,-0.00,1.00,2.32,-4.58,-4.94
1777399805153,2438715,0.01,-0.00,0.99,2.32,-4.70,-4.88
1777399805153,2438725,0.02,-0.01,1.00,2.26,-4.70,-4.94
1777399805153,2438735,0.01,-0.01,1.00,2.26,-4.70,-4.94
1777399805153,2438745,0.01,-0.01,1.00,2.38,-4.76,-4.70
1777399805154,2438755,0.01,-0.00,1.00,2.50,-4.76,-4.46
1777399805154,2438765,0.01,-0.01,1.00,2.44,-4.70,-4.46
1777399805154,2438775,0.01,-0.00,1.00,2.32,-4.64,-4.70
1777399805154,2438785,0.02,-0.01,1.00,2.26,-4.64,-4.88
1777399805154,2438795,0.01,-0.00,1.00,2.26,-4.70,-5.07
1777399805154,2438815,0.01,-0.00,1.00,2.50,-4.70,-4.46
1777399805154,2438835,0.01,-0.00,1.00,2.50,-4.70,-4.39
1777399805154,2438855,0.01,-0.00,1.00,2.38,-4.76,-4.82
1777399805154,2438875,0.01,-0.01,1.00,2.32,-4.64,-4.82
1777399805154,2438885,0.01,-0.01,1.00,2.32,-4.70,-4.70
1777399805155,2438895,0.01,-0.00,1.00,2.44,-4.76,-4.52
1777399805155,2438905,0.01,-0.01,1.00,2.44,-4.64,-4.33
1777399805155,2438915,0.01,-0.00,1.00,2.44,-4.64,-4.46
1777399805155,2438925,0.01,-0.01,1.00,2.38,-4.70,-4.64
1777399805155,2438935,0.01,-0.00,1.00,2.32,-4.70,-4.82
1777399805155,2438945,0.01,-0.00,1.00,2.26,-4.64,-5.00
1777399805155,2438955,0.01,-0.01,1.00,2.32,-4.70,-5.00
1777399805155,2438965,0.01,-0.00,1.00,2.32,-4.70,-4.82
1777399805155,2438975,0.01,-0.00,1.00,2.32,-4.70,-5.00
1777399805156,2438985,0.01,-0.00,1.00,2.20,-4.64,-5.00
1777399805156,2438995,0.01,-0.00,1.00,2.32,-4.70,-4.82
1777399805156,2439005,0.01,-0.01,1.00,2.44,-4.70,-4.52
1777399805156,2439015,0.01,-0.00,1.00,2.38,-4.70,-4.82
1777399805156,2439025,0.01,-0.00,1.00,2.26,-4.64,-5.07
1777399805156,2439035,0.01,-0.00,1.00,2.38,-4.70,-4.76
1777399805156,2439045,0.01,-0.01,1.00,2.50,-4.64,-4.46
1777399805156,2439055,0.01,-0.00,1.00,2.56,-4.64,-4.27
1777399805156,2439065,0.01,-0.00,1.00,2.62,-4.76,-4.09
1777399805156,2439075,0.01,-0.01,1.00,2.56,-4.76,-4.15
1777399805156,2439085,0.01,-0.00,1.00,2.56,-4.76,-4.15
1777399805157,2439095,0.01,-0.01,1.00,2.44,-4.76,-4.33
1777399805157,2439105,0.01,-0.00,1.00,2.38,-4.82,-4.52
1777399805157,2439115,0.01,-0.00,1.00,2.32,-4.70,-4.70
1777399805157,2439125,0.01,-0.01,1.00,2.26,-4.70,-4.82
1777399805157,2439135,0.01,-0.01,1.00,2.32,-4.64,-4.70
1777399805157,2439145,0.01,-0.01,1.00,2.44,-4.76,-4.70
1777399805157,2439165,0.01,-0.00,1.00,2.38,-4.64,-4.58
1777399805157,2439185,0.01,-0.01,1.00,2.56,-4.64,-4.39
1777399805157,2439205,0.01,-0.01,1.00,2.38,-4.64,-4.70
1777399805157,2439225,0.01,-0.01,1.00,2.50,-4.64,-4.46
1777399805158,2439235,0.01,-0.00,1.00,2.62,-4.70,-4.15
1777399805158,2439245,0.01,-0.00,1.00,2.44,-4.70,-4.39
1777399805158,2439255,0.01,-0.00,1.00,2.26,-4.70,-4.88
1777399805158,2439265,0.01,-0.00,1.00,2.32,-4.70,-4.82
1777399805158,2439275,0.01,-0.00,1.00,2.32,-4.76,-4.82
1777399805158,2439285,0.01,-0.01,1.00,2.44,-4.76,-4.46
1777399805158,2439295,0.01,-0.00,1.00,2.56,-4.82,-4.15
1777399805158,2439305,0.01,-0.01,1.00,2.56,-4.76,-4.39
1777399805158,2439315,0.01,-0.01,1.00,2.38,-4.70,-4.64
1777399805158,2439325,0.01,-0.01,1.00,2.44,-4.70,-4.70
1777399805159,2439335,0.01,-0.00,1.00,2.38,-4.76,-4.82
1777399805159,2439345,0.01,-0.00,1.00,2.26,-4.70,-4.94
1777399805159,2439355,0.01,-0.00,1.00,2.26,-4.70,-5.07
1777399805159,2439365,0.01,-0.01,1.00,2.32,-4.70,-4.88
1777399805159,2439375,0.01,-0.01,1.00,2.44,-4.70,-4.64
1777399805159,2439385,0.01,-0.01,1.00,2.32,-4.64,-4.70
1777399805159,2439395,0.01,-0.00,1.00,2.32,-4.76,-4.82
1777399805159,2439405,0.01,-0.00,1.00,2.32,-4.64,-4.64
1777399805159,2439415,0.01,-0.00,1.00,2.44,-4.76,-4.39
1777399805159,2439425,0.01,-0.01,1.00,2.50,-4.76,-4.39
1777399805160,2439435,0.01,-0.01,1.00,2.44,-4.76,-4.33
1777399805160,2439445,0.01,-0.01,1.00,2.50,-4.64,-4.39
1777399805160,2439455,0.01,-0.00,1.00,2.44,-4.76,-4.58
1777399805160,2439465,0.01,-0.01,1.00,2.38,-4.76,-4.70
1777399805160,2439475,0.01,-0.01,1.00,2.38,-4.76,-4.88
1777399805160,2439485,0.01,-0.00,1.00,2.32,-4.64,-4.88
1777399805160,2439505,0.01,-0.01,1.00,2.56,-4.70,-4.27
1777399805160,2439525,0.01,-0.01,1.00,2.44,-4.64,-4.27
1777399805160,2439545,0.03,-0.03,0.95,2.69,-4.39,-4.21
1777399805161,2439565,0.00,-0.03,0.98,2.20,-4.88,-9.03
1777399805161,2439575,-0.04,-0.03,1.00,2.75,-3.60,-14.40
1777399805161,2439585,-0.03,-0.01,1.01,2.93,-3.23,-24.05
1777399805161,2439595,-0.01,-0.01,1.01,2.99,-3.78,-31.13
1777399805161,2439605,-0.01,0.00,1.00,2.75,-3.66,-37.78
1777399805161,2439615,-0.01,0.01,1.00,2.44,-3.72,-41.99
1777399805161,2439625,0.00,0.01,1.00,2.20,-4.15,-42.05
1777399805161,2439635,0.01,0.01,1.00,2.20,-4.09,-40.53
1777399805161,2439645,0.03,0.02,1.00,2.14,-4.15,-38.15
1777399805161,2439655,0.03,0.01,1.00,2.32,-4.03,-34.00
1777399805162,2439665,0.04,0.01,1.00,2.56,-4.09,-28.75
1777399805162,2439675,0.04,-0.00,1.00,2.14,-4.33,-24.23
1777399805162,2439685,0.04,0.02,1.00,1.89,-4.33,-20.20
1777399805162,2439695,0.05,-0.00,1.00,2.08,-4.70,-13.98
1777399805162,2439705,0.03,-0.00,1.00,2.50,-4.82,-7.75
1777399805162,2439715,0.01,-0.01,1.00,2.75,-4.58,-4.70
1777399805162,2439725,0.01,-0.01,1.00,2.69,-4.64,-4.52
1777399805162,2439735,0.01,-0.00,1.00,2.69,-4.76,-4.82
1777399805162,2439745,0.02,-0.00,1.00,2.69,-4.64,-4.82
1777399805162,2439755,0.03,0.01,1.00,2.81,-4.82,-2.87
1777399805163,2439765,0.03,0.03,1.01,2.99,-5.07,2.26
1777399805163,2439775,0.02,-0.00,1.00,3.17,-5.80,10.01
1777399805163,2439785,0.01,-0.01,1.00,3.05,-5.86,12.82
1777399805163,2439795,0.01,0.00,1.01,2.62,-5.25,10.68
1777399805163,2439805,0.00,-0.02,1.00,2.32,-5.49,9.28
1777399805163,2439815,0.00,-0.00,1.00,2.32,-5.37,6.04
1777399805163,2439825,0.01,-0.01,1.00,2.26,-5.31,4.39
1777399805163,2439835,-0.01,-0.04,1.00,2.26,-5.07,-0.85
1777399805163,2439855,0.01,-0.01,1.00,2.20,-4.82,-6.29
1777399805163,2439875,0.02,0.00,1.00,2.44,-4.82,-5.49
1777399805164,2439895,0.01,-0.01,1.00,2.32,-4.58,-4.58
1777399805164,2439915,0.01,-0.01,1.00,2.38,-4.58,-4.58
1777399805164,2439925,0.01,-0.00,1.00,2.50,-4.58,-4.27
1777399805164,2439935,0.01,-0.00,1.00,2.56,-4.76,-4.03
1777399805164,2439945,0.01,-0.00,1.00,2.56,-4.82,-4.21
1777399805164,2439955,0.01,-0.00,1.00,2.38,-4.76,-4.58
1777399805164,2439965,0.01,-0.01,1.00,2.38,-4.76,-4.70
1777399805164,2439975,0.01,-0.00,1.00,2.38,-4.82,-4.82
1777399805164,2439985,0.01,-0.00,1.00,2.38,-4.82,-4.58
1777399805164,2439995,0.01,-0.00,1.00,2.62,-4.76,-4.15
1777399805165,2440005,0.01,-0.00,1.00,2.44,-4.70,-4.46
1777399805165,2440015,0.01,-0.00,1.00,2.32,-4.64,-5.00
1777399805165,2440025,0.01,-0.01,1.00,2.32,-4.64,-4.70
1777399805165,2440035,0.01,-0.00,1.00,2.38,-4.64,-4.58
1777399805165,2440045,0.01,-0.01,1.00,2.44,-4.70,-4.64
1777399805165,2440055,0.01,-0.01,1.00,2.44,-4.70,-4.82
1777399805165,2440065,0.01,-0.01,1.00,2.44,-4.70,-4.46
1777399805165,2440075,0.01,-0.00,1.00,2.50,-4.76,-4.21
1777399805165,2440085,0.01,-0.00,1.00,2.62,-4.76,-4.21
1777399805165,2440095,0.01,-0.00,1.00,2.62,-4.76,-4.33
1777399805165,2440105,0.01,-0.00,1.00,2.50,-4.76,-4.46
1777399805166,2440115,0.01,-0.00,1.00,2.44,-4.76,-4.64
1777399805166,2440125,0.01,-0.01,1.00,2.50,-4.82,-4.46
1777399805166,2440135,0.01,-0.00,1.00,2.50,-4.70,-4.33
1777399805166,2440145,0.01,-0.00,1.00,2.56,-4.70,-4.33
1777399805166,2440155,0.01,-0.01,1.00,2.50,-4.64,-4.33
1777399805166,2440165,0.01,-0.00,1.00,2.32,-4.70,-4.58
1777399805166,2440175,0.01,-0.00,1.00,2.14,-4.70,-5.00
1777399805166,2440195,0.01,-0.00,1.00,2.44,-4.70,-4.64
1777399805166,2440215,0.01,-0.01,1.00,2.50,-4.76,-4.33
1777399805166,2440235,0.01,-0.00,1.00,2.50,-4.76,-4.27
1777399805167,2440255,0.01,-0.01,1.00,2.32,-4.70,-4.82
1777399805167,2440265,0.01,-0.00,1.00,2.20,-4.70,-5.00
1777399805167,2440275,0.01,-0.00,1.00,2.32,-4.70,-4.70
1777399805167,2440285,0.01,-0.00,1.00,2.56,-4.64,-4.21
1777399805167,2440295,0.01,-0.01,1.00,2.56,-4.76,-4.21
1777399805167,2440305,0.01,-0.01,1.00,2.56,-4.70,-4.15
1777399805167,2440315,0.01,-0.01,1.00,2.50,-4.70,-4.33
1777399805167,2440325,0.01,-0.01,1.00,2.38,-4.82,-4.58
1777399805167,2440335,0.01,-0.00,1.00,2.38,-4.88,-4.82
1777399805167,2440345,0.01,-0.00,1.00,2.26,-4.76,-5.13
1777399805168,2440355,0.01,-0.01,1.00,2.38,-4.76,-4.70
1777399805168,2440365,0.01,-0.01,1.00,2.56,-4.70,-4.15
1777399805168,2440375,0.01,-0.00,1.00,2.38,-4.70,-4.52
1777399805168,2440385,0.01,-0.00,1.00,2.26,-4.70,-5.07
1777399805168,2440395,0.01,-0.00,1.00,2.38,-4.70,-4.76
1777399805168,2440405,0.01,-0.00,1.00,2.44,-4.70,-4.27
1777399805168,2440415,0.01,-0.01,1.00,2.50,-4.82,-4.39
1777399805168,2440425,0.01,-0.00,1.00,2.44,-4.82,-4.58
1777399805168,2440435,0.01,-0.01,1.00,2.50,-4.76,-4.52
1777399805168,2440445,0.01,-0.00,1.00,2.56,-4.76,-4.39
1777399805169,2440455,0.01,-0.00,1.00,2.56,-4.82,-4.27
1777399805169,2440465,0.01,-0.00,1.00,2.56,-4.70,-4.21
1777399805169,2440475,0.01,-0.00,1.00,2.44,-4.70,-4.39
1777399805169,2440485,0.01,-0.01,1.00,2.32,-4.76,-4.82
1777399805169,2440495,0.01,-0.00,1.00,2.38,-4.70,-4.82
1777399805169,2440505,0.01,-0.00,1.00,2.32,-4.70,-5.07
1777399805169,2440515,0.01,-0.00,1.00,2.38,-4.76,-4.94
1777399805169,2440525,0.01,-0.00,1.00,2.38,-4.70,-4.82
1777399805169,2440545,0.01,-0.00,1.00,2.26,-4.70,-5.00
1777399805169,2440565,0.01,-0.01,1.00,2.32,-4.70,-4.70
1777399805170,2440585,0.01,-0.00,1.00,2.56,-4.82,-4.46
1777399805170,2440605,0.01,-0.00,1.00,2.44,-4.70,-4.33
1777399805170,2440615,0.01,-0.01,1.01,2.56,-4.82,-4.27
1777399805170,2440625,0.01,-0.00,1.00,2.56,-4.76,-4.15
1777399805170,2440635,0.01,-0.01,1.00,2.56,-4.70,-4.21
1777399805170,2440645,0.01,-0.01,1.00,2.56,-4.64,-4.46
1777399805170,2440655,0.01,-0.00,1.00,2.44,-4.70,-4.76
1777399805170,2440665,0.01,-0.00,1.00,2.38,-4.70,-4.76
1777399805170,2440675,0.01,-0.00,1.00,2.32,-4.70,-4.76
1777399805171,2440685,0.01,-0.01,1.00,2.38,-4.76,-4.82
1777399805171,2440695,0.01,-0.01,1.00,2.32,-4.64,-4.82
1777399805171,2440705,0.01,-0.00,1.00,2.26,-4.70,-4.94
1777399805171,2440715,0.01,-0.00,1.00,2.20,-4.70,-5.13
1777399805171,2440725,0.01,-0.00,1.00,2.20,-4.70,-5.00
1777399805171,2440735,0.01,-0.00,1.00,2.32,-4.76,-5.00
1777399805171,2440745,0.01,-0.00,1.00,2.32,-4.70,-4.88
1777399805171,2440755,0.01,-0.00,1.00,2.38,-4.82,-4.70
1777399805171,2440765,0.01,-0.00,1.00,2.44,-4.70,-4.64
1777399805171,2440775,0.01,-0.01,1.00,2.44,-4.70,-4.52
1777399805171,2440785,0.01,-0.00,1.00,2.44,-4.76,-4.52
1777399805172,2440795,0.01,-0.00,1.00,2.50,-4.76,-4.39
1777399805172,2440805,0.01,-0.00,1.00,2.44,-4.76,-4.58
1777399805172,2440815,0.01,-0.00,1.00,2.38,-4.70,-4.64
1777399805172,2440825,0.01,-0.01,1.00,2.38,-4.64,-4.58
1777399805172,2440835,0.01,-0.00,1.00,2.38,-4.70,-4.64
1777399805172,2440845,0.01,-0.00,1.00,2.50,-4.76,-4.64
1777399805172,2440855,0.01,-0.00,1.00,2.50,-4.64,-4.64
1777399805172,2440865,0.01,-0.00,1.00,2.38,-4.64,-4.64
1777399805172,2440875,0.01,-0.01,1.00,2.38,-4.70,-4.46
1777399805172,2440895,0.01,-0.00,1.00,2.44,-4.76,-4.70
1777399805173,2440915,0.01,-0.01,1.00,2.38,-4.70,-4.70
1777399805173,2440935,0.01,-0.01,1.00,2.56,-4.70,-4.33
1777399805173,2440945,0.01,-0.00,1.00,2.38,-4.70,-4.70
1777399805173,2440955,0.01,-0.01,1.00,2.44,-4.70,-4.39
1777399805173,2440965,0.01,-0.00,1.00,2.62,-4.70,-4.15
1777399805173,2440975,0.01,-0.00,1.00,2.44,-4.70,-4.52
1777399805173,2440985,0.01,-0.00,1.00,2.20,-4.64,-5.13
1777399805173,2440995,0.01,-0.01,1.00,2.32,-4.70,-4.88
1777399805173,2441005,0.01,-0.00,1.00,2.44,-4.76,-4.58
1777399805173,2441015,0.01,-0.01,1.00,2.38,-4.70,-4.52
1777399805174,2441025,0.01,-0.01,1.00,2.38,-4.76,-4.58
1777399805174,2441035,0.01,-0.01,1.00,2.50,-4.64,-4.46
1777399805174,2441045,0.01,-0.01,1.00,2.44,-4.76,-4.27
1777399805174,2441055,0.01,-0.00,1.00,2.44,-4.76,-4.64
1777399805174,2441065,0.01,-0.00,1.00,2.32,-4.76,-5.00
1777399805174,2441075,0.01,-0.00,1.00,2.38,-4.70,-5.07
1777399805174,2441085,0.01,-0.00,1.00,2.38,-4.70,-4.94
1777399805174,2441095,0.01,-0.00,1.00,2.38,-4.64,-4.52
1777399805174,2441105,0.01,-0.00,1.00,2.62,-4.76,-4.21
1777399805174,2441115,0.01,-0.00,1.00,2.56,-4.76,-4.21
1777399805174,2441125,0.01,-0.00,1.00,2.56,-4.76,-4.27
1777399805175,2441135,0.01,-0.00,1.00,2.56,-4.76,-4.33
1777399805175,2441145,0.01,-0.01,1.00,2.62,-4.70,-4.33
1777399805175,2441155,0.01,-0.01,1.00,2.56,-4.70,-4.33
1777399805175,2441165,0.01,-0.00,1.00,2.62,-4.70,-4.39
1777399805175,2441175,0.01,-0.00,1.00,2.56,-4.64,-4.46
1777399805175,2441185,0.01,-0.00,1.00,2.50,-4.58,-4.58
1777399805175,2441195,0.01,-0.00,1.00,2.56,-4.58,-4.64
1777399805175,2441205,0.01,-0.00,1.00,2.44,-4.58,-4.70
1777399805175,2441215,0.01,-0.00,1.00,2.50,-4.70,-4.64
1777399805175,2441235,0.01,-0.00,1.00,2.32,-4.70,-5.13
1777399805176,2441255,0.01,-0.00,1.00,2.32,-4.70,-5.00
1777399805176,2441275,0.01,-0.00,1.00,2.56,-4.70,-4.46
1777399805176,2441295,0.01,-0.00,1.00,2.38,-4.70,-4.88
1777399805176,2441305,0.01,-0.00,1.00,2.38,-4.76,-4.70
1777399805176,2441315,0.01,-0.01,1.00,2.38,-4.70,-4.52
1777399805176,2441325,0.01,-0.00,1.00,2.38,-4.70,-4.58
1777399805176,2441335,0.01,-0.00,1.00,2.44,-4.70,-4.64
1777399805176,2441345,0.01,-0.00,1.00,2.44,-4.64,-4.76
1777399805176,2441355,0.01,-0.00,1.00,2.32,-4.70,-5.07
1777399805176,2441365,0.01,-0.00,1.00,2.32,-4.70,-4.88
1777399805176,2441375,0.01,-0.01,1.00,2.44,-4.82,-4.64
1777399805177,2441385,0.01,-0.00,1.00,2.32,-4.64,-4.70
1777399805177,2441395,0.01,-0.00,1.00,2.32,-4.64,-4.88
1777399805177,2441405,0.01,-0.00,1.00,2.44,-4.64,-4.58
1777399805177,2441415,0.01,-0.00,1.00,2.56,-4.70,-4.15
1777399805177,2441425,0.01,-0.01,1.00,2.50,-4.76,-4.46
1777399805177,2441435,0.01,-0.00,1.00,2.38,-4.76,-4.58
1777399805177,2441445,0.01,-0.00,1.00,2.32,-4.70,-4.82
1777399805177,2441455,0.01,-0.00,1.00,2.26,-4.76,-5.07
1777399805177,2441465,0.01,-0.00,1.00,2.38,-4.76,-4.76
1777399805178,2441475,0.01,-0.00,1.00,2.50,-4.76,-4.39
1777399805178,2441485,0.01,-0.00,1.00,2.38,-4.76,-4.76
1777399805178,2441495,0.01,-0.00,1.00,2.20,-4.76,-5.07
1777399805178,2441505,0.01,-0.01,0.99,2.38,-4.70,-4.76
1777399805178,2441515,0.01,-0.00,1.01,2.56,-4.76,-4.33
1777399805178,2441525,0.01,-0.00,0.99,2.44,-4.76,-4.33
1777399805178,2441535,0.01,-0.00,1.01,2.44,-4.82,-4.52
1777399805178,2441545,0.01,-0.00,0.99,2.44,-4.76,-4.64
1777399805178,2441555,0.01,-0.00,1.00,2.32,-4.70,-4.70
1777399805178,2441565,0.01,-0.01,1.02,2.38,-4.70,-4.46
1777399805179,2441585,0.01,-0.01,1.01,2.38,-4.52,-4.76
1777399805179,2441605,0.01,-0.00,0.99,2.44,-4.76,-4.82
1777399805179,2441625,0.01,-0.01,1.00,2.38,-4.70,-4.82
1777399805179,2441635,0.01,-0.00,1.00,2.32,-4.76,-4.76
1777399805179,2441645,0.01,-0.01,1.00,2.38,-4.76,-4.76
1777399805179,2441655,0.01,-0.01,1.00,2.38,-4.64,-4.64
1777399805179,2441665,0.01,-0.00,1.00,2.44,-4.70,-4.46
1777399805179,2441675,0.01,-0.01,1.00,2.44,-4.76,-4.58
1777399805179,2441685,0.01,-0.00,1.00,2.38,-4.70,-4.70
1777399805179,2441695,0.01,-0.00,1.00,2.50,-4.70,-4.46
1777399805180,2441705,0.01,-0.00,1.00,2.56,-4.70,-4.15
1777399805180,2441715,0.01,-0.01,1.00,2.50,-4.76,-4.33
1777399805180,2441725,0.01,-0.00,1.01,2.44,-4.76,-4.58
1777399805180,2441735,0.01,-0.00,1.00,2.38,-4.70,-4.64
1777399805180,2441745,0.01,-0.00,1.00,2.38,-4.70,-4.76
1777399805180,2441755,0.01,-0.00,1.00,2.38,-4.70,-4.58
1777399805180,2441765,0.01,-0.00,1.00,2.56,-4.70,-4.39
1777399805180,2441775,0.01,-0.01,1.00,2.38,-4.64,-4.70
1777399805180,2441785,0.01,-0.00,1.00,2.32,-4.70,-5.07
1777399805180,2441795,0.01,-0.00,1.00,2.38,-4.70,-4.82
1777399805181,2441805,0.01,-0.01,1.00,2.44,-4.64,-4.58
1777399805181,2441815,0.01,-0.00,1.00,2.32,-4.70,-4.88
1777399805181,2441825,0.01,-0.00,1.00,2.26,-4.82,-5.13
1777399805181,2441835,0.01,-0.00,1.00,2.26,-4.76,-5.07
1777399805181,2441845,0.01,-0.00,1.00,2.32,-4.82,-4.94
1777399805181,2441855,0.01,-0.00,1.00,2.26,-4.70,-5.07
1777399805181,2441865,0.01,-0.00,1.00,2.26,-4.64,-5.07
1777399805181,2441875,0.01,-0.00,1.00,2.44,-4.70,-4.70
1777399805181,2441885,0.01,-0.00,1.00,2.44,-4.70,-4.46
1777399805182,2441895,0.01,-0.00,1.00,2.44,-4.88,-4.52
1777399805182,2441905,0.01,-0.00,1.00,2.38,-4.82,-4.70
1777399805182,2441925,0.01,-0.00,1.00,2.38,-4.64,-4.76
1777399805182,2441945,0.01,-0.00,1.00,2.38,-4.76,-4.70
1777399805182,2441965,0.01,-0.00,1.00,2.38,-4.76,-4.88
1777399805182,2441985,0.01,-0.00,1.00,2.32,-4.70,-4.76
1777399805182,2441995,0.01,-0.00,1.00,2.44,-4.76,-4.70
1777399805182,2442005,-0.03,0.02,1.07,2.62,-3.78,-4.52
1777399805182,2442015,0.00,-0.01,1.01,2.20,-5.00,-4.46
1777399805182,2442025,-0.03,-0.05,0.99,2.20,-4.33,-6.59
1777399805183,2442035,-0.03,-0.01,1.01,2.44,-2.56,-15.14
1777399805183,2442045,-0.04,-0.01,1.01,2.01,-2.99,-24.66
1777399805183,2442055,-0.02,0.05,1.00,1.34,-3.48,-34.06
1777399805183,2442065,-0.00,-0.01,1.00,0.98,-3.91,-34.30
1777399805183,2442075,-0.01,-0.01,1.00,0.98,-4.46,-31.74
1777399805183,2442085,-0.01,-0.01,1.00,1.89,-4.09,-31.80
1777399805183,2442095,0.01,0.02,1.01,2.14,-3.60,-31.56
1777399805183,2442105,0.01,0.02,1.01,2.20,-3.66,-29.48
1777399805183,2442115,0.02,0.00,1.00,1.46,-4.46,-24.96
1777399805183,2442125,0.04,-0.01,1.00,1.59,-4.33,-20.20
1777399805184,2442135,0.03,0.00,1.00,1.83,-4.33,-17.03
1777399805184,2442145,0.03,-0.00,1.00,2.44,-4.39,-12.51
1777399805184,2442155,0.03,-0.01,1.00,2.93,-4.64,-8.85
1777399805184,2442165,0.03,-0.01,1.01,2.56,-4.33,-7.75
1777399805184,2442175,0.04,-0.02,1.00,1.95,-4.21,-7.14
1777399805184,2442185,0.03,0.16,0.94,3.91,-4.03,-8.61
1777399805184,2442195,0.02,0.35,1.04,12.63,-8.12,-7.14
1777399805184,2442205,-0.00,0.30,1.00,3.30,-4.64,-0.06
1777399805184,2442215,-0.01,-0.22,1.02,2.14,-4.09,-1.65
1777399805185,2442225,-0.06,-0.38,1.02,-2.62,-1.83,-37.66
1777399805185,2442235,-0.06,0.00,0.99,-3.17,2.38,-71.29
1777399805185,2442245,-0.03,-0.42,1.07,0.43,1.71,-65.86
1777399805185,2442255,0.30,0.39,1.10,-12.76,-7.45,79.77
1777399805185,2442275,0.09,0.09,1.06,-5.37,60.73,66.04
1777399805185,2442295,0.10,-0.34,1.12,-3.60,79.10,52.43
1777399805185,2442315,-0.67,-0.68,1.23,-27.65,62.62,19.10
1777399805185,2442325,-0.73,-0.46,1.40,-59.27,19.23,2.99
1777399805185,2442335,-0.54,-0.44,1.66,-81.05,-2.99,-2.01
1777399805185,2442345,-0.37,-0.54,1.80,-83.86,1.46,5.31
1777399805186,2442355,-0.48,-0.29,1.78,-64.64,36.19,15.69
1777399805186,2442365,-0.47,-0.05,1.75,-33.45,89.60,41.38
1777399805186,2442375,-0.32,0.01,1.70,3.60,136.35,73.36
1777399805186,2442385,-0.30,0.01,1.59,39.25,173.10,97.41
1777399805186,2442395,-0.39,0.02,1.50,67.87,198.18,114.07
1777399805186,2442405,-0.35,-0.04,1.22,82.52,217.90,123.90
1777399805186,2442415,-0.32,-0.09,1.07,61.34,235.78,117.86
1777399805186,2442425,-0.41,-0.06,0.88,10.44,240.17,98.57
1777399805186,2442435,-0.40,-0.03,0.72,-57.68,230.83,86.67
1777399805186,2442445,-0.18,-0.09,0.71,-125.00,208.01,84.53
1777399805187,2442455,-0.07,-0.05,0.58,-159.24,179.87,76.29
1777399805187,2442465,-0.09,0.01,0.53,-172.79,154.11,53.77
1777399805187,2442475,-0.09,0.00,0.52,-169.01,122.68,24.17
1777399805187,2442485,-0.38,0.18,0.36,-139.47,90.70,-2.99
1777399805187,2442495,-0.51,0.24,0.42,-107.73,63.90,-9.40
1777399805187,2442505,-0.46,0.14,0.47,-70.43,41.26,-4.82
1777399805187,2442515,-0.49,0.06,0.54,-32.90,34.73,0.00
1777399805187,2442525,-0.54,0.01,0.60,-11.17,35.83,7.26
1777399805187,2442535,-0.52,-0.01,0.61,-4.52,39.49,14.16
1777399805188,2442545,-0.47,0.04,0.55,-8.18,43.70,17.33
1777399805188,2442555,-0.32,0.19,0.39,-25.02,45.53,15.81
1777399805188,2442565,0.04,0.08,0.53,-80.69,88.20,3.85
1777399805188,2442575,-0.64,0.05,0.40,-122.19,170.90,-20.26
1777399805188,2442585,-0.64,0.00,0.60,-134.16,162.29,-22.77
1777399805188,2442595,-0.37,-0.25,0.67,-162.96,156.31,-7.20
1777399805188,2442615,-0.52,-0.28,0.79,-140.87,171.39,27.77
1777399805188,2442635,-0.91,-1.08,1.31,-106.20,96.37,76.05
1777399805188,2442655,-1.02,-0.99,0.73,22.16,-45.90,-38.15
1777399805189,2442675,-0.55,0.01,0.76,-30.15,-115.78,-110.23
1777399805189,2442685,-0.50,-0.19,0.72,-68.79,-124.88,-87.59
1777399805189,2442695,-0.56,-0.14,0.65,-90.03,-125.73,-70.13
1777399805189,2442705,-0.77,-0.10,0.60,-97.66,-127.62,-67.75
1777399805189,2442715,-0.38,0.30,0.07,-120.24,-117.68,-88.32
1777399805189,2442725,-0.22,0.20,-0.14,-147.28,-63.05,-75.20
1777399805189,2442735,-0.11,0.09,0.17,-112.24,2.32,-39.12
1777399805189,2442745,-0.27,0.01,0.23,-76.17,41.69,-2.50
1777399805189,2442755,-0.61,-0.14,0.15,-67.26,59.69,10.25
1777399805190,2442765,-0.92,-0.49,0.18,-79.35,80.20,3.48
1777399805190,2442775,-0.83,-0.81,0.39,-87.83,103.33,-24.17
1777399805190,2442785,-0.60,-0.89,0.63,-52.43,124.57,-47.30
1777399805190,2442795,-0.48,-0.75,0.69,8.61,136.90,-54.20
1777399805190,2442805,-0.54,-0.47,0.81,38.09,142.58,-51.15
1777399805190,2442815,-0.80,-0.29,0.87,26.25,132.51,-39.73
1777399805190,2442825,-0.83,-0.39,0.98,1.53,108.95,-24.23
1777399805190,2442835,-0.68,-0.52,1.01,-21.06,84.23,-12.21
1777399805190,2442845,-0.76,-0.50,0.80,-35.28,54.38,-6.71
1777399805190,2442855,-0.84,-0.30,0.82,-55.60,35.64,-6.53
1777399805191,2442865,-0.85,-0.17,0.78,-96.25,26.67,-6.04
1777399805191,2442875,-0.84,0.53,0.85,-136.17,22.03,5.25
1777399805191,2442885,-0.76,-0.39,0.17,-165.77,17.21,55.48
1777399805191,2442895,-0.65,-1.00,0.11,-177.67,46.81,80.44
1777399805191,2442905,-0.72,-1.14,0.25,-177.06,83.74,44.07
1777399805191,2442915,-0.73,-0.90,0.16,-163.15,100.52,6.23
1777399805191,2442925,-0.81,-0.51,0.24,-154.42,113.71,-17.88
1777399805191,2442935,-0.83,-0.48,0.20,-160.95,115.72,-19.17
1777399805191,2442945,-0.91,-0.58,0.21,-169.68,94.85,-13.85
1777399805191,2442965,-0.86,-0.71,0.04,-151.31,78.67,-26.31
1777399805192,2442985,-0.70,-0.70,-0.22,-130.92,64.33,-23.62
1777399805192,2443005,-0.64,-0.71,-0.32,-93.44,67.87,-14.53
1777399805192,2443025,-0.70,-0.63,-0.30,-73.18,74.34,-15.81
1777399805192,2443035,-0.71,-0.61,-0.29,-68.48,71.53,-17.21
1777399805192,2443045,-0.71,-0.59,-0.27,-67.81,64.88,-18.13
1777399805192,2443055,-0.69,-0.59,-0.29,-70.86,54.57,-17.52
1777399805192,2443065,-0.68,-0.60,-0.32,-74.58,45.04,-15.26
1777399805192,2443075,-0.67,-0.60,-0.35,-74.95,39.18,-12.45
1777399805192,2443085,-0.67,-0.62,-0.37,-73.55,35.58,-10.44
1777399805193,2443095,-0.67,-0.63,-0.39,-68.97,33.39,-9.46
1777399805193,2443105,-0.68,-0.62,-0.39,-60.55,32.53,-9.22
1777399805193,2443115,-0.71,-0.61,-0.37,-51.21,31.56,-9.28
1777399805193,2443125,-0.73,-0.61,-0.36,-42.54,28.87,-10.25
1777399805193,2443135,-0.75,-0.61,-0.34,-34.42,24.90,-13.18
1777399805193,2443145,-0.74,-0.60,-0.33,-27.71,19.04,-16.42
1777399805193,2443155,-0.71,-0.58,-0.34,-23.01,12.76,-17.88
1777399805193,2443165,-0.69,-0.56,-0.33,-20.81,8.24,-17.21
1777399805193,2443175,-0.69,-0.57,-0.32,-20.81,4.76,-14.28
1777399805193,2443185,-0.69,-0.56,-0.32,-21.97,1.10,-10.62
1777399805194,2443195,-0.68,-0.55,-0.33,-23.93,-2.20,-7.45
1777399805194,2443205,-0.69,-0.55,-0.34,-25.27,-3.91,-4.94
1777399805194,2443215,-0.71,-0.56,-0.34,-25.15,-4.21,-4.64
1777399805194,2443225,-0.72,-0.57,-0.34,-22.71,-3.91,-6.71
1777399805194,2443235,-0.72,-0.56,-0.34,-18.68,-3.23,-9.52
1777399805194,2443245,-0.73,-0.56,-0.34,-14.04,-2.75,-11.47
1777399805194,2443255,-0.74,-0.57,-0.33,-9.89,-2.26,-12.15
1777399805194,2443265,-0.74,-0.57,-0.32,-6.53,-2.01,-12.02
1777399805194,2443275,-0.73,-0.57,-0.32,-3.91,-1.89,-11.72
1777399805194,2443285,-0.73,-0.56,-0.32,-2.56,-1.53,-11.17
1777399805195,2443305,-0.72,-0.56,-0.31,-2.26,-1.16,-7.69
1777399805195,2443325,-0.71,-0.57,-0.32,-4.15,-3.11,-5.92
1777399805195,2443345,-0.71,-0.57,-0.34,-5.00,-5.19,-6.65
1777399805195,2443365,-0.72,-0.59,-0.35,-2.38,-9.22,-6.10
1777399805195,2443375,-0.72,-0.59,-0.36,-1.28,-11.72,-5.25
1777399805195,2443385,-0.72,-0.58,-0.37,-0.85,-13.79,-4.94
1777399805195,2443395,-0.73,-0.59,-0.38,-0.31,-15.50,-4.39
1777399805195,2443405,-0.73,-0.59,-0.39,1.34,-17.52,-3.36
1777399805195,2443415,-0.74,-0.58,-0.41,3.97,-19.90,-2.44
1777399805196,2443425,-0.73,-0.58,-0.42,7.14,-21.91,-2.14
1777399805196,2443435,-0.73,-0.56,-0.43,10.80,-23.01,-2.44
1777399805196,2443445,-0.73,-0.54,-0.43,14.16,-23.07,-2.50
1777399805196,2443455,-0.75,-0.52,-0.43,15.87,-23.32,-1.95
1777399805196,2443465,-0.75,-0.52,-0.44,16.85,-22.77,-1.46
1777399805196,2443475,-0.74,-0.52,-0.45,16.78,-20.87,-2.26
1777399805196,2443485,-0.73,-0.51,-0.46,17.09,-17.58,-3.11
1777399805196,2443495,-0.73,-0.52,-0.45,19.10,-12.70,-3.30
1777399805201,2443505,-0.72,-0.52,-0.43,22.03,-8.00,-3.42
1777399805211,2443515,-0.72,-0.53,-0.41,24.54,-6.29,-3.30
1777399805221,2443525,-0.71,-0.55,-0.39,26.73,-8.12,-2.44
1777399805231,2443535,-0.70,-0.56,-0.37,29.36,-11.90,-1.83
1777399805241,2443545,-0.70,-0.56,-0.34,31.80,-16.17,-2.44
1777399805251,2443555,-0.70,-0.57,-0.31,34.06,-20.63,-2.50
1777399805261,2443565,-0.69,-0.59,-0.28,36.32,-24.60,-1.34
1777399805271,2443575,-0.69,-0.60,-0.25,37.66,-27.65,0.18
1777399805281,2443585,-0.69,-0.61,-0.22,38.02,-30.09,2.81
1777399805291,2443595,-0.69,-0.61,-0.19,37.60,-31.37,6.04
1777399805301,2443605,-0.70,-0.61,-0.17,36.62,-30.09,7.93
1777399805311,2443615,-0.71,-0.61,-0.14,35.46,-26.37,9.34
1777399805321,2443625,-0.73,-0.60,-0.12,34.00,-21.42,10.74
1777399805331,2443635,-0.77,-0.58,-0.09,32.10,-15.50,7.75
1777399805351,2443655,-0.81,-0.61,-0.05,25.15,-7.08,-1.46
1777399805371,2443675,-0.80,-0.65,0.01,20.45,-11.60,-2.38
1777399805391,2443695,-0.75,-0.68,0.01,14.65,-18.49,-0.61
1777399805411,2443715,-0.71,-0.67,0.00,10.99,-14.53,1.53
1777399805421,2443725,-0.72,-0.66,0.02,9.95,-7.81,4.03
1777399805431,2443735,-0.74,-0.64,0.04,8.18,-0.67,6.77
1777399805441,2443745,-0.77,-0.61,0.06,4.39,4.46,7.93
1777399805451,2443755,-0.80,-0.58,0.07,-2.01,5.80,7.57
1777399805461,2443765,-0.80,-0.56,0.04,-9.64,4.52,5.55
1777399805471,2443775,-0.80,-0.56,0.01,-16.78,2.93,2.20
1777399805481,2443785,-0.79,-0.56,-0.03,-22.03,2.32,-1.77
1777399805491,2443795,-0.78,-0.57,-0.07,-23.68,3.66,-3.97
1777399805501,2443805,-0.76,-0.57,-0.11,-22.22,7.57,-4.03
1777399805511,2443815,-0.75,-0.58,-0.12,-20.63,14.04,-4.21
1777399805521,2443825,-0.76,-0.58,-0.12,-20.51,20.63,-4.70
1777399805532,2443835,-0.75,-0.57,-0.14,-21.91,25.45,-4.27
1777399805541,2443845,-0.76,-0.56,-0.15,-24.78,28.44,-3.30
1777399805551,2443855,-0.77,-0.54,-0.18,-28.44,29.91,-2.81
1777399805561,2443865,-0.77,-0.53,-0.21,-31.56,30.52,-3.42
1777399805571,2443875,-0.78,-0.52,-0.25,-33.94,30.15,-5.00
1777399805581,2443885,-0.78,-0.51,-0.29,-35.77,29.11,-7.14
1777399805591,2443895,-0.77,-0.51,-0.33,-36.80,28.26,-8.67
1777399805601,2443905,-0.76,-0.51,-0.37,-37.11,27.95,-9.16
1777399805611,2443915,-0.75,-0.52,-0.41,-36.50,28.38,-8.91
1777399805621,2443925,-0.74,-0.53,-0.44,-35.10,29.30,-8.61
1777399805631,2443935,-0.74,-0.52,-0.47,-32.71,29.42,-7.93
1777399805641,2443945,-0.74,-0.53,-0.49,-29.54,27.34,-6.84
1777399805651,2443955,-0.75,-0.53,-0.50,-25.70,22.52,-5.68
1777399805661,2443965,-0.75,-0.53,-0.51,-20.81,15.01,-4.03
1777399805671,2443975,-0.76,-0.54,-0.53,-14.77,5.55,-3.05
1777399805691,2443995,-0.74,-0.55,-0.54,8.00,-26.25,-3.66
1777399805711,2444015,-0.75,-0.54,-0.47,18.37,-40.53,-4.27
1777399805731,2444035,-0.71,-0.53,-0.43,21.97,-47.24,-2.08
1777399805751,2444055,-0.72,-0.52,-0.38,25.51,-43.15,2.14
1777399805761,2444065,-0.74,-0.52,-0.34,26.98,-40.95,3.97
1777399805771,2444075,-0.77,-0.52,-0.32,27.83,-41.81,4.70
1777399805781,2444085,-0.78,-0.52,-0.29,29.48,-43.70,3.42
1777399805791,2444095,-0.79,-0.53,-0.27,31.68,-45.04,0.06
1777399805801,2444105,-0.79,-0.54,-0.24,33.08,-45.84,-3.42
1777399805811,2444115,-0.79,-0.55,-0.21,34.36,-46.45,-4.03
1777399805821,2444125,-0.79,-0.56,-0.18,35.89,-46.63,-2.38
1777399805831,2444135,-0.79,-0.57,-0.15,37.41,-45.53,-0.31
1777399805841,2444145,-0.79,-0.57,-0.12,38.15,-42.42,0.79
1777399805851,2444155,-0.78,-0.56,-0.10,38.27,-36.62,1.46
1777399805861,2444165,-0.78,-0.56,-0.08,38.33,-26.12,2.32
1777399805871,2444175,-0.79,-0.56,-0.04,37.35,-10.74,2.44
1777399805881,2444185,-0.80,-0.53,0.00,32.78,4.88,1.46
1777399805891,2444195,-0.82,-0.51,0.02,23.62,17.03,0.06
1777399805901,2444205,-0.84,-0.51,0.02,11.29,25.27,-2.14
1777399805911,2444215,-0.84,-0.53,-0.02,-0.85,28.81,-5.31
1777399805921,2444225,-0.83,-0.54,-0.06,-9.34,29.30,-7.81
1777399805931,2444235,-0.81,-0.54,-0.11,-14.28,28.69,-8.67
1777399805941,2444245,-0.78,-0.55,-0.17,-17.94,26.98,-8.42
1777399805951,2444255,-0.76,-0.55,-0.22,-20.69,25.57,-7.93
1777399805961,2444265,-0.76,-0.56,-0.28,-21.18,25.09,-7.75
1777399805971,2444275,-0.76,-0.56,-0.31,-19.78,24.78,-7.39
1777399805981,2444285,-0.76,-0.56,-0.34,-16.66,23.68,-6.35
1777399805991,2444295,-0.77,-0.56,-0.35,-12.57,20.69,-5.25
1777399806001,2444305,-0.76,-0.55,-0.36,-8.73,15.75,-5.00
1777399806011,2444315,-0.75,-0.55,-0.37,-5.98,9.22,-5.37
1777399806021,2444325,-0.72,-0.54,-0.39,-3.60,2.08,-5.86
1777399806041,2444345,-0.68,-0.56,-0.39,10.13,-13.00,-4.58
1777399806061,2444365,-0.71,-0.53,-0.32,20.39,-14.28,-2.01
1777399806081,2444385,-0.76,-0.53,-0.23,27.16,-10.99,1.65
