host_time_ms,arduino_time_ms,ax,ay,az,gx,gy,gz
1777399465720,2091869,-0.91,-0.05,-0.47,93.14,1.95,-61.04
1777399465720,2091879,-0.89,-0.02,-0.52,89.78,2.56,-59.69
1777399465720,2091889,-0.87,-0.02,-0.57,83.68,11.35,-56.21
1777399465721,2091899,-0.85,-0.03,-0.57,78.12,23.25,-51.27
1777399465721,2091909,-0.80,-0.09,-0.56,73.97,32.17,-43.40
1777399465721,2091929,-0.70,-0.16,-0.42,43.27,22.22,-40.71
1777399465721,2091949,-0.64,-0.09,-0.67,27.04,3.23,-40.53
1777399465722,2091969,-0.69,0.02,-0.70,32.29,11.35,-33.57
1777399465722,2091979,-0.72,0.04,-0.71,30.09,11.78,-29.54
1777399465722,2091989,-0.75,0.04,-0.73,27.47,9.46,-27.34
1777399465722,2091999,-0.78,0.04,-0.75,28.26,5.86,-27.28
1777399465723,2092009,-0.83,0.05,-0.74,32.04,2.93,-30.40
1777399465723,2092019,-0.83,0.07,-0.73,35.95,0.79,-33.94
1777399465724,2092029,-0.83,0.10,-0.71,38.21,1.28,-35.34
1777399465724,2092039,-0.83,0.13,-0.69,39.92,4.03,-33.75
1777399465725,2092049,-0.85,0.16,-0.66,42.05,9.09,-30.27
1777399465725,2092059,-0.90,0.20,-0.60,43.95,14.83,-26.18
1777399465725,2092069,-0.93,0.24,-0.56,45.84,17.70,-24.41
1777399465725,2092079,-0.94,0.27,-0.53,49.07,18.19,-26.18
1777399465726,2092089,-0.93,0.28,-0.52,55.42,17.03,-30.33
1777399465726,2092099,-0.89,0.26,-0.52,66.83,15.32,-38.09
1777399465726,2092109,-0.83,0.21,-0.48,84.47,12.27,-49.19
1777399465727,2092119,-0.80,0.18,-0.41,105.71,3.36,-60.91
1777399465727,2092129,-0.80,0.14,-0.34,127.50,-12.51,-71.72
1777399465727,2092139,-0.77,0.12,-0.29,146.18,-31.86,-82.64
1777399465727,2092149,-0.70,0.11,-0.32,159.12,-49.13,-93.26
1777399465728,2092159,-0.61,0.08,-0.41,167.11,-57.56,-99.49
1777399465728,2092169,-0.56,0.04,-0.46,173.95,-51.82,-97.72
1777399465728,2092179,-0.53,0.00,-0.48,182.37,-35.95,-89.90
1777399465728,2092189,-0.52,-0.04,-0.46,190.49,-16.91,-80.57
1777399465729,2092199,-0.53,-0.10,-0.36,194.64,-0.61,-73.30
1777399465729,2092209,-0.56,-0.18,-0.27,193.60,4.33,-68.97
1777399465729,2092219,-0.59,-0.29,-0.21,190.12,-3.23,-69.15
1777399465730,2092229,-0.56,-0.37,-0.20,186.10,-20.26,-74.16
1777399465730,2092239,-0.50,-0.45,-0.24,180.73,-41.50,-79.22
1777399465730,2092249,-0.45,-0.48,-0.30,173.95,-61.10,-78.06
1777399465730,2092269,-0.43,-0.61,-0.51,178.10,-77.51,-63.66
1777399465731,2092289,-0.51,-0.72,-0.31,197.02,-52.43,-45.53
1777399465731,2092309,-0.64,-0.79,-0.02,177.73,-55.36,-28.87
1777399465731,2092329,-0.66,-0.78,-0.03,124.76,-77.21,-12.15
1777399465731,2092339,-0.65,-0.86,-0.11,99.73,-81.73,3.72
1777399465732,2092349,-0.70,-0.92,-0.23,85.57,-76.29,13.67
1777399465732,2092359,-0.72,-0.92,-0.29,84.11,-61.46,18.01
1777399465732,2092369,-0.77,-0.91,-0.24,87.71,-41.56,20.81
1777399465732,2092379,-0.81,-0.89,-0.12,88.93,-27.71,23.25
1777399465732,2092389,-0.88,-0.92,0.03,82.15,-26.37,26.06
1777399465733,2092399,-0.89,-0.95,0.10,71.66,-39.31,24.48
1777399465733,2092409,-0.87,-0.94,0.13,60.06,-57.98,19.04
1777399465733,2092419,-0.82,-0.92,0.13,47.73,-78.06,13.43
1777399465733,2092429,-0.82,-0.89,0.06,37.72,-95.09,8.73
1777399465734,2092439,-0.80,-0.89,-0.00,31.25,-103.45,3.17
1777399465734,2092449,-0.75,-0.89,-0.11,32.10,-101.26,-3.54
1777399465734,2092459,-0.72,-0.87,-0.20,40.95,-89.42,-10.44
1777399465734,2092469,-0.70,-0.84,-0.22,56.88,-68.12,-16.17
1777399465734,2092479,-0.70,-0.80,-0.14,73.36,-44.62,-19.41
1777399465735,2092489,-0.70,-0.77,-0.04,86.06,-28.32,-20.87
1777399465735,2092499,-0.70,-0.76,0.08,95.09,-23.99,-22.46
1777399465735,2092509,-0.69,-0.76,0.18,98.75,-32.96,-24.96
1777399465735,2092519,-0.70,-0.82,0.25,98.75,-53.16,-29.48
1777399465736,2092529,-0.65,-0.81,0.29,97.23,-77.15,-37.17
1777399465736,2092539,-0.61,-0.76,0.32,92.77,-101.56,-45.96
1777399465736,2092549,-0.52,-0.67,0.25,87.28,-123.29,-51.03
1777399465736,2092559,-0.45,-0.67,0.09,82.76,-132.93,-50.23
1777399465736,2092569,-0.49,-0.59,0.11,79.96,-124.57,-45.65
1777399465737,2092579,-0.53,-0.59,0.05,86.43,-108.46,-34.00
1777399465737,2092589,-0.60,-0.58,0.05,89.72,-84.72,-25.94
1777399465737,2092599,-0.65,-0.56,0.10,92.10,-44.13,-20.81
1777399465737,2092619,-0.78,-0.49,0.33,83.07,-29.24,-21.79
1777399465737,2092639,-0.76,-0.61,0.36,71.78,-55.48,-30.76
1777399465738,2092659,-0.65,-0.65,0.14,78.92,-57.50,-33.02
1777399465738,2092669,-0.66,-0.71,0.19,87.22,-45.17,-32.47
1777399465738,2092679,-0.71,-0.69,0.21,99.61,-34.55,-36.25
1777399465738,2092689,-0.72,-0.69,0.35,110.78,-26.55,-40.65
1777399465739,2092699,-0.71,-0.56,0.43,119.02,-25.39,-46.45
1777399465739,2092709,-0.75,-0.57,0.56,120.12,-31.07,-44.31
1777399465739,2092719,-0.77,-0.57,0.79,102.78,-41.81,-41.87
1777399465739,2092729,-0.77,-0.60,0.84,84.96,-65.61,-40.41
1777399465739,2092739,-0.70,-0.58,0.63,79.28,-92.71,-39.49
1777399465740,2092749,-0.62,-0.52,0.44,75.20,-102.66,-37.54
1777399465740,2092759,-0.53,-0.53,0.38,71.17,-92.10,-32.53
1777399465740,2092769,-0.52,-0.58,0.41,71.72,-73.43,-26.12
1777399465740,2092779,-0.58,-0.62,0.48,69.95,-54.14,-20.69
1777399465741,2092789,-0.68,-0.58,0.51,70.86,-41.32,-18.07
1777399465741,2092799,-0.73,-0.63,0.55,72.14,-33.51,-19.90
1777399465741,2092809,-0.72,-0.68,0.62,71.72,-29.24,-26.37
1777399465741,2092819,-0.69,-0.63,0.62,68.85,-31.62,-36.38
1777399465741,2092829,-0.59,-0.55,0.66,61.52,-35.77,-43.15
1777399465742,2092839,-0.52,-0.50,0.61,52.67,-41.75,-42.91
1777399465742,2092849,-0.46,-0.50,0.58,46.69,-43.21,-35.22
1777399465742,2092859,-0.45,-0.54,0.58,39.61,-40.22,-26.37
1777399465742,2092869,-0.41,-0.63,0.58,35.71,-35.16,-18.98
1777399465742,2092879,-0.35,-0.65,0.51,34.24,-30.94,-14.95
1777399465742,2092889,-0.37,-0.61,0.55,35.34,-25.27,-12.33
1777399465743,2092899,-0.46,-0.53,0.68,38.82,-23.62,-9.58
1777399465743,2092909,-0.54,-0.38,0.67,47.91,-30.94,-5.86
1777399465743,2092919,-0.53,-0.47,0.74,55.79,-40.59,-1.40
1777399465743,2092929,-0.46,-0.65,0.71,64.09,-50.78,-2.81
1777399465743,2092939,-0.36,-0.68,0.65,70.25,-56.70,-28.44
1777399465744,2092959,-0.29,-0.14,0.79,41.38,-23.68,8.24
1777399465744,2092979,-0.28,-0.57,0.43,5.92,-3.78,22.28
1777399465744,2092999,-0.50,-0.43,1.09,-10.01,39.92,19.47
1777399465744,2093019,-0.49,-0.33,1.02,13.24,5.00,25.09
1777399465744,2093029,-0.41,-0.36,0.93,14.34,-9.28,30.58
1777399465744,2093039,-0.38,-0.56,0.69,14.28,-15.50,35.52
1777399465745,2093049,-0.44,-0.49,0.75,14.34,-7.45,31.56
1777399465745,2093059,-0.49,-0.43,0.80,18.74,-1.46,29.11
1777399465745,2093069,-0.49,-0.42,0.76,21.55,-3.78,28.99
1777399465745,2093079,-0.49,-0.45,0.77,22.09,-6.59,29.79
1777399465745,2093089,-0.50,-0.44,0.76,31.01,-10.44,30.94
1777399465745,2093099,-0.53,-0.43,0.78,44.07,-13.24,34.12
1777399465746,2093109,-0.58,-0.35,0.76,59.88,-16.91,38.02
1777399465746,2093119,-0.58,-0.40,0.78,79.71,-19.41,44.92
1777399465746,2093129,-0.58,-0.47,0.82,103.94,-22.52,47.79
1777399465746,2093139,-0.46,-0.38,0.82,125.79,-26.98,42.05
1777399465746,2093149,-0.64,-0.38,0.95,137.63,-29.72,30.94
1777399465747,2093159,-0.34,-0.23,1.02,149.60,-43.76,22.16
1777399465747,2093169,-0.28,-0.14,1.02,171.57,-67.08,30.27
1777399465747,2093179,-0.41,-0.13,0.80,171.45,-73.24,45.47
1777399465747,2093189,-0.44,-0.06,0.73,143.98,-73.61,36.19
1777399465747,2093199,-0.36,-0.10,0.70,85.02,-71.04,11.35
1777399465748,2093209,-0.27,-0.12,0.65,26.55,-69.52,-18.25
1777399465748,2093219,-0.32,-0.08,0.62,-16.66,-67.20,-45.59
1777399465748,2093229,-0.31,0.04,0.55,-51.82,-80.69,-70.98
1777399465748,2093239,-0.30,-0.06,0.62,-75.50,-98.33,-89.60
1777399465749,2093249,-0.33,-0.12,0.69,-73.61,-108.89,-91.49
1777399465749,2093259,-0.30,-0.13,0.76,-45.90,-115.23,-86.91
1777399465749,2093269,-0.27,-0.14,0.78,-7.69,-118.16,-77.15
1777399465749,2093279,-0.22,-0.14,0.80,29.79,-116.15,-69.40
1777399465749,2093289,-0.14,-0.19,0.85,52.19,-112.61,-63.60
1777399465749,2093309,0.03,-0.48,1.03,-9.70,-123.35,-72.27
1777399465750,2093329,0.09,-0.56,1.17,-79.96,-119.57,-76.48
1777399465750,2093349,-0.57,-0.21,2.02,48.83,-131.77,-32.17
1777399465750,2093369,0.35,-0.36,0.79,83.01,-84.84,27.10
1777399465750,2093379,0.02,-0.34,1.20,29.05,-16.05,-27.53
1777399465750,2093389,-0.02,-0.23,1.04,37.48,12.33,-43.27
1777399465750,2093399,0.13,-0.33,0.86,44.25,17.52,-33.94
1777399465751,2093409,0.21,-0.40,0.88,46.20,13.06,-26.25
1777399465751,2093419,0.20,-0.36,0.92,55.36,-0.73,-17.94
1777399465751,2093429,0.07,-0.36,1.02,57.37,-19.96,-6.35
1777399465751,2093439,0.03,-0.30,0.98,58.11,-35.28,4.21
1777399465751,2093449,0.09,-0.28,1.02,51.39,-34.73,8.48
1777399465751,2093459,0.09,-0.18,1.06,45.41,-22.46,5.80
1777399465752,2093469,0.02,-0.11,1.06,39.37,-11.72,2.32
1777399465752,2093479,-0.02,-0.07,1.07,27.83,-9.52,-3.72
1777399465752,2093489,0.00,-0.09,1.06,14.28,-15.87,-12.88
1777399465752,2093499,0.06,-0.12,1.03,2.75,-23.50,-21.12
1777399465752,2093509,0.12,-0.15,1.00,-2.50,-27.22,-25.51
1777399465752,2093519,0.10,-0.14,0.97,-3.54,-26.06,-29.91
1777399465753,2093529,0.03,-0.08,1.00,-4.27,-21.61,-33.26
1777399465753,2093539,0.00,-0.05,1.03,-4.39,-17.88,-33.26
1777399465753,2093549,0.04,-0.06,1.02,-6.29,-14.40,-36.68
1777399465753,2093559,0.09,-0.08,1.01,-7.57,-9.28,-47.36
1777399465753,2093569,0.10,-0.07,0.99,-7.63,-3.66,-60.85
1777399465753,2093579,0.07,-0.07,1.02,-9.22,0.37,-67.87
1777399465754,2093589,0.05,-0.09,0.99,-8.48,-0.43,-65.80
1777399465754,2093599,0.01,-0.08,0.99,-8.85,-4.09,-62.19
1777399465754,2093609,-0.01,-0.12,1.01,-10.01,-9.70,-59.94
1777399465754,2093619,0.02,-0.13,0.98,-8.54,-16.30,-60.30
1777399465754,2093629,-0.00,-0.12,0.98,-8.73,-21.24,-63.54
1777399465754,2093649,-0.02,-0.07,1.03,-19.17,-23.74,-79.04
1777399465755,2093669,-0.04,-0.12,1.02,-34.67,-13.06,-92.04
1777399465755,2093689,-0.01,-0.18,0.95,-34.42,4.27,-89.66
1777399465755,2093709,0.04,-0.26,0.91,-23.25,7.69,-69.15
1777399465755,2093719,0.05,-0.20,0.90,-17.40,4.09,-62.13
1777399465755,2093729,0.00,-0.18,0.93,-9.16,-0.18,-53.41
1777399465755,2093739,-0.05,-0.17,0.96,-0.98,-4.70,-44.19
1777399465756,2093749,-0.07,-0.16,0.99,5.25,-8.85,-38.09
1777399465756,2093759,-0.09,-0.17,0.96,10.31,-10.68,-35.40
1777399465756,2093769,-0.12,-0.18,0.99,13.73,-8.85,-35.03
1777399465756,2093779,-0.10,-0.12,1.05,12.76,-6.53,-38.70
1777399465756,2093789,-0.06,-0.09,1.07,5.98,-5.98,-43.09
1777399465756,2093799,-0.10,-0.10,1.06,-4.39,-4.64,-47.42
1777399465757,2093809,-0.13,-0.12,1.06,-17.40,-0.85,-50.23
1777399465757,2093819,-0.16,-0.19,1.02,-26.55,6.71,-47.79
1777399465757,2093829,-0.12,-0.28,1.00,-33.33,15.99,-43.15
1777399465757,2093839,-0.04,-0.30,1.00,-38.15,23.13,-43.21
1777399465757,2093849,0.02,-0.24,0.98,-43.03,25.33,-52.12
1777399465757,2093859,-0.01,-0.17,0.97,-44.13,25.39,-68.36
1777399465757,2093869,-0.04,-0.14,0.92,-39.49,26.55,-86.36
1777399465758,2093879,-0.07,-0.10,0.89,-28.44,31.56,-100.46
1777399465758,2093889,-0.11,-0.12,0.92,-18.86,37.78,-110.11
1777399465758,2093899,-0.06,-0.13,0.91,-10.07,41.50,-113.95
1777399465758,2093909,-0.01,-0.12,0.88,-11.90,39.86,-114.07
1777399465758,2093919,0.07,-0.06,0.56,-32.84,39.55,-111.82
1777399465758,2093929,0.15,-0.30,0.44,-95.58,50.42,-110.23
1777399465759,2093939,0.15,-0.51,0.38,-160.03,70.92,-114.50
1777399465759,2093949,0.06,-0.60,0.38,-228.76,90.76,-115.48
1777399465759,2093959,-0.29,-0.61,1.96,-124.94,49.87,-120.73
1777399465759,2093969,-0.21,-0.39,1.03,-10.01,-16.24,-110.84
1777399465759,2093979,-0.15,-0.47,0.82,-18.19,10.74,-85.33
1777399465759,2093999,-0.21,-0.41,0.97,44.25,27.53,-82.15
1777399465759,2094019,-0.28,-0.48,0.92,78.61,15.75,-53.22
1777399465760,2094039,-0.11,-0.38,0.90,77.15,-3.17,-7.26
1777399465760,2094059,0.01,-0.27,0.92,72.14,-5.43,7.57
1777399465760,2094069,0.04,-0.26,0.93,82.52,-2.26,1.71
1777399465760,2094079,0.03,-0.15,0.97,99.49,0.18,-9.70
1777399465760,2094089,0.10,-0.07,0.96,114.01,-2.87,-18.55
1777399465760,2094099,0.17,-0.18,0.95,122.44,-2.75,-17.09
1777399465760,2094109,0.25,-0.21,0.98,126.95,-1.89,-17.52
1777399465761,2094119,0.19,-0.19,1.03,123.41,-2.38,-18.31
1777399465761,2094129,0.04,-0.19,1.09,107.60,-2.75,-15.01
1777399465761,2094139,-0.03,-0.24,0.98,87.16,-3.85,-9.83
1777399465761,2094149,-0.06,-0.29,0.98,68.24,-4.15,-8.97
1777399465761,2094159,-0.04,-0.20,1.02,53.34,-3.48,-12.21
1777399465761,2094169,-0.03,-0.04,1.09,41.44,-3.97,-11.41
1777399465761,2094179,0.08,-0.07,1.04,22.89,-4.33,-8.06
1777399465762,2094189,0.08,-0.02,0.97,13.18,-3.97,-17.52
1777399465762,2094199,0.04,-0.06,1.00,12.39,-1.22,-32.90
1777399465762,2094209,0.45,-0.26,1.02,11.96,0.31,-48.71
1777399465762,2094219,0.57,-0.07,1.03,-0.55,5.43,-86.06
1777399465762,2094229,0.37,-0.01,0.99,-10.93,10.86,-125.06
1777399465762,2094239,0.36,-0.10,0.99,-9.95,14.16,-149.35
1777399465762,2094249,-0.02,0.02,0.96,-0.79,17.21,-174.68
1777399465763,2094259,-0.22,0.03,0.90,19.47,17.88,-180.60
1777399465763,2094269,-0.22,-0.09,0.91,46.26,15.56,-169.74
1777399465763,2094279,-0.15,-0.08,0.95,69.15,12.02,-154.97
1777399465763,2094289,-0.07,-0.02,1.02,80.81,8.18,-143.07
1777399465763,2094299,0.02,-0.01,1.03,78.74,5.13,-130.13
1777399465763,2094309,-0.06,0.05,1.00,74.89,2.20,-121.95
1777399465763,2094319,-0.10,-0.12,0.95,72.02,1.22,-96.50
1777399465764,2094339,-0.27,-0.07,1.61,12.02,-1.34,-87.65
1777399465764,2094359,-0.10,0.25,1.02,1.89,-4.33,-63.05
1777399465764,2094379,0.08,0.24,1.02,-11.96,-3.30,-40.04
1777399465764,2094399,0.09,0.08,1.00,-7.02,-3.78,-36.68
1777399465764,2094409,0.08,0.08,0.96,1.16,-3.72,-46.45
1777399465764,2094419,0.05,0.09,1.00,19.10,-3.54,-60.06
1777399465764,2094429,0.08,0.13,1.06,28.56,-3.23,-77.64
1777399465765,2094439,0.09,0.07,1.06,14.04,-1.28,-94.54
1777399465765,2094449,0.08,-0.00,1.05,3.85,-2.08,-107.24
1777399465765,2094459,0.09,0.03,1.00,3.78,-3.05,-118.23
1777399465765,2094469,0.12,0.12,1.01,3.23,-2.93,-124.15
1777399465765,2094479,0.12,0.17,1.00,3.23,-3.11,-119.69
1777399465765,2094489,0.12,0.12,1.02,3.30,-2.81,-111.27
1777399465765,2094499,0.13,0.13,0.99,3.23,-2.50,-106.69
1777399465766,2094509,0.11,0.11,1.02,3.72,-2.44,-106.81
1777399465766,2094519,0.13,0.10,0.98,3.85,-2.81,-110.41
1777399465766,2094529,0.11,0.12,1.00,3.48,-2.08,-115.66
1777399465766,2094539,0.10,0.07,0.99,3.30,-2.50,-121.15
1777399465766,2094549,0.08,-0.05,0.99,3.85,-2.56,-130.92
1777399465766,2094559,0.06,-0.14,1.00,4.64,-1.22,-149.60
1777399465766,2094569,0.04,-0.21,0.99,5.07,-0.55,-173.65
1777399465767,2094579,0.03,-0.33,1.02,4.39,-1.16,-200.13
1777399465767,2094589,0.01,-0.33,1.04,4.09,-1.46,-226.44
1777399465767,2094599,0.01,-0.22,1.02,4.70,-0.92,-241.21
1777399465767,2094609,0.01,-0.16,1.02,4.21,-0.85,-236.69
1777399465767,2094619,0.02,-0.11,1.01,4.70,-1.22,-221.86
1777399465767,2094629,0.04,-0.09,0.97,3.60,-1.89,-200.01
1777399465767,2094639,0.05,-0.09,0.99,3.60,-1.95,-174.38
1777399465768,2094649,0.05,-0.10,0.99,3.17,-2.32,-149.60
1777399465768,2094659,0.05,-0.13,1.00,3.36,-2.81,-127.75
1777399465768,2094669,0.06,-0.16,1.00,3.60,-2.69,-97.23
1777399465768,2094689,0.07,-0.20,1.02,3.36,-3.66,-80.93
1777399465768,2094709,0.07,-0.18,0.96,3.36,-3.66,-68.18
1777399465768,2094729,0.03,-0.35,1.00,3.23,-4.09,-55.11
1777399465768,2094749,0.02,-0.32,1.00,2.87,-4.33,-47.30
1777399465769,2094759,0.03,-0.27,0.99,4.82,-5.00,-35.22
1777399465769,2094769,0.08,-0.11,0.99,2.75,-4.76,-19.71
1777399465769,2094779,0.02,-0.00,1.00,2.81,-4.76,-3.60
1777399465769,2094789,-0.01,-0.07,1.00,2.44,-4.94,9.77
1777399465769,2094799,-0.04,-0.20,1.00,2.38,-5.07,17.46
1777399465769,2094809,-0.03,-0.25,1.00,2.69,-5.19,20.69
1777399465769,2094819,0.06,-0.46,0.98,2.44,-5.13,17.58
1777399465769,2094829,0.10,-0.52,1.01,2.26,-4.70,5.19
1777399465770,2094839,0.02,-0.36,1.02,2.26,-4.70,-3.48
1777399465770,2094849,0.01,-0.24,1.00,1.89,-4.94,7.26
1777399465770,2094859,0.05,-0.10,1.01,2.01,-5.00,29.42
1777399465770,2094869,0.11,-0.00,0.98,1.59,-5.62,51.94
1777399465770,2094879,0.12,0.04,1.00,1.40,-5.74,66.16
1777399465770,2094889,0.06,0.05,1.02,1.71,-6.04,70.25
1777399465770,2094899,0.06,0.05,0.98,1.65,-6.04,70.37
1777399465770,2094909,0.01,0.06,0.99,1.53,-5.92,67.38
1777399465771,2094919,0.00,0.08,0.98,1.59,-5.86,62.19
1777399465771,2094929,-0.00,0.08,0.97,1.71,-5.86,54.81
1777399465771,2094939,-0.01,0.08,1.04,1.53,-5.86,47.73
1777399465771,2094949,-0.00,0.10,0.97,2.32,-5.80,42.18
1777399465771,2094959,-0.01,0.12,1.00,2.01,-5.43,37.78
1777399465771,2094969,-0.01,0.11,1.02,1.53,-5.49,34.97
1777399465771,2094979,-0.08,1.43,1.02,1.65,-5.55,40.59
1777399465771,2094989,0.19,0.23,1.06,-1.16,-7.26,84.11
1777399465772,2094999,0.16,-0.02,0.99,-9.58,-5.31,45.17
1777399465772,2095009,0.31,-0.11,0.97,-12.57,-1.83,-2.08
1777399465772,2095029,0.01,0.00,0.99,-6.04,-4.58,3.17
1777399465772,2095049,-0.03,0.02,0.99,-2.20,-5.25,21.73
1777399465772,2095069,-0.02,-0.15,1.01,-0.43,-5.74,21.36
1777399465772,2095089,-0.08,-0.31,0.99,-3.72,-5.55,19.29
1777399465772,2095099,-0.10,-0.35,0.99,-2.20,-5.68,22.58
1777399465772,2095109,-0.11,-0.37,1.01,0.31,-6.90,35.22
1777399465773,2095119,-0.07,-0.42,0.96,1.10,-7.14,54.08
1777399465773,2095129,-0.05,-0.39,0.97,2.20,-7.45,71.96
1777399465773,2095139,-0.04,-0.27,1.00,3.72,-8.36,90.15
1777399465773,2095149,-0.04,-0.16,1.05,0.00,-8.36,104.49
1777399465773,2095159,-0.02,-0.17,0.99,-9.16,-8.00,108.34
1777399465773,2095169,-0.04,-0.14,0.97,-8.85,-8.67,110.17
1777399465773,2095179,-0.06,-0.12,1.02,-5.55,-9.58,118.41
1777399465773,2095189,-0.01,-0.13,1.01,-7.08,-10.25,133.42
1777399465774,2095199,0.02,-0.15,1.02,-8.18,-11.41,148.01
1777399465774,2095209,0.02,-0.20,1.01,-9.95,-12.27,157.47
1777399465774,2095219,-0.02,-0.26,1.02,-11.29,-12.21,159.91
1777399465774,2095229,0.01,-0.43,0.92,-10.01,-15.08,159.79
1777399465774,2095239,0.06,-0.53,1.01,-4.15,-14.40,158.20
1777399465774,2095249,0.02,-0.48,1.00,-0.92,-15.20,154.66
1777399465774,2095259,-0.07,-0.35,0.97,-2.75,-14.65,145.57
1777399465775,2095269,-0.17,-0.17,0.98,-9.70,-12.21,132.51
1777399465775,2095279,-0.13,-0.08,1.00,-13.92,-10.31,121.58
1777399465775,2095289,-0.10,-0.00,0.97,-14.65,-8.61,114.81
1777399465775,2095299,-0.02,0.12,1.03,-9.46,-9.83,117.98
1777399465775,2095309,0.08,0.07,1.00,-8.67,-12.39,128.60
1777399465775,2095319,0.16,0.07,1.01,-8.61,-11.96,135.80
1777399465775,2095329,0.16,0.06,0.98,-6.71,-14.59,138.24
1777399465775,2095339,0.16,-0.12,0.98,-7.32,-13.92,143.68
1777399465776,2095349,0.12,-0.19,0.95,-0.85,-14.16,138.49
1777399465776,2095359,0.04,-0.16,0.99,6.41,-13.67,108.83
1777399465776,2095379,-0.22,0.19,1.04,-17.21,-9.89,101.50
1777399465776,2095399,0.11,0.01,0.99,-16.78,-13.92,103.27
1777399465776,2095419,0.23,-0.01,1.02,-13.92,-14.71,106.45
1777399465776,2095439,0.03,0.05,0.97,-9.83,-14.89,101.26
1777399465776,2095449,0.01,0.07,1.00,-0.98,-14.83,100.65
1777399465776,2095459,0.04,0.02,0.92,9.46,-14.16,98.63
1777399465777,2095469,0.10,-0.17,0.79,32.59,-13.37,95.58
1777399465777,2095479,0.19,-0.38,0.74,79.16,-12.08,89.23
1777399465777,2095489,0.16,-0.21,0.91,132.02,-9.28,78.61
1777399465777,2095499,0.18,0.09,1.43,133.91,-7.14,82.40
1777399465777,2095509,0.25,0.02,1.03,10.93,-5.98,85.39
1777399465777,2095519,0.20,-0.03,0.99,2.08,-5.62,88.87
1777399465777,2095529,0.08,0.10,1.04,1.65,-6.04,96.19
1777399465777,2095539,0.03,0.08,1.02,1.04,-6.59,112.61
1777399465778,2095549,0.05,0.01,0.96,0.49,-7.14,128.85
1777399465778,2095559,0.05,0.04,0.99,0.79,-6.47,137.27
1777399465778,2095569,0.10,0.07,1.00,1.16,-6.35,140.50
1777399465778,2095579,0.13,0.08,1.02,1.46,-6.53,142.70
1777399465778,2095589,0.14,0.04,0.97,0.98,-6.65,143.19
1777399465778,2095599,0.15,0.09,1.00,0.85,-6.90,138.98
1777399465778,2095609,0.17,0.14,1.01,0.73,-6.84,133.79
1777399465778,2095619,0.18,0.14,0.99,0.98,-7.20,130.19
1777399465778,2095629,0.19,0.06,0.99,1.10,-6.35,122.68
1777399465779,2095639,0.20,0.04,1.04,1.53,-6.16,106.69
1777399465779,2095649,0.19,0.08,0.99,1.10,-6.35,84.05
1777399465779,2095659,0.19,0.14,0.97,1.71,-6.10,65.49
1777399465779,2095669,0.18,0.16,1.06,1.59,-5.62,56.21
1777399465779,2095679,0.18,0.13,0.99,1.40,-5.98,50.42
1777399465779,2095689,0.18,0.12,0.98,2.50,-4.94,42.48
1777399465779,2095699,0.19,0.13,1.01,2.26,-5.31,16.85
1777399465779,2095719,0.19,0.10,1.00,2.20,-5.13,1.95
1777399465780,2095739,0.02,-0.01,1.00,2.44,-4.82,-4.03
1777399465780,2095759,0.02,-0.00,1.00,2.56,-4.76,-3.54
1777399465780,2095779,0.01,-0.01,1.00,2.56,-4.70,-3.54
1777399465780,2095789,0.02,-0.01,1.00,2.56,-4.76,-4.39
1777399465780,2095799,0.01,-0.01,1.00,2.56,-4.70,-4.70
1777399465780,2095809,0.02,-0.01,1.00,2.62,-4.76,-4.64
1777399465780,2095819,0.02,-0.01,1.00,2.62,-4.70,-4.58
1777399465780,2095829,0.02,-0.01,1.00,2.38,-4.70,-4.70
1777399465781,2095839,0.02,-0.01,1.00,2.38,-4.76,-5.00
1777399465781,2095849,0.02,-0.01,1.00,2.38,-4.70,-4.94
1777399465781,2095859,0.02,-0.01,1.00,2.32,-4.76,-5.13
1777399465781,2095869,0.02,-0.01,1.00,2.38,-4.64,-5.07
1777399465781,2095879,0.02,-0.01,1.00,2.50,-4.64,-4.82
1777399465781,2095889,0.02,-0.01,1.00,2.44,-4.76,-5.00
1777399465781,2095899,0.02,-0.01,1.00,2.32,-4.76,-5.19
1777399465781,2095909,0.02,-0.01,1.00,2.38,-4.76,-4.94
1777399465781,2095919,0.02,-0.01,1.00,2.44,-4.76,-4.76
1777399465782,2095929,0.02,-0.01,1.00,2.44,-4.76,-4.88
1777399465782,2095939,0.02,-0.01,1.00,2.32,-4.70,-5.13
1777399465782,2095949,0.02,-0.01,1.00,2.38,-4.82,-4.88
1777399465782,2095959,0.02,-0.01,1.00,2.50,-4.76,-4.64
1777399465782,2095969,0.02,-0.01,1.00,2.44,-4.76,-4.58
1777399465782,2095979,0.01,-0.01,1.00,2.50,-4.70,-4.58
1777399465782,2095989,0.02,-0.01,1.00,2.50,-4.82,-4.64
1777399465782,2095999,0.02,-0.01,1.00,2.50,-4.76,-4.70
1777399465782,2096009,0.02,-0.01,1.00,2.50,-4.70,-4.64
1777399465783,2096019,0.02,-0.01,1.00,2.56,-4.70,-4.58
1777399465783,2096029,0.02,-0.01,1.00,2.50,-4.70,-4.76
1777399465783,2096039,0.02,-0.01,1.00,2.56,-4.76,-4.88
1777399465783,2096049,0.02,-0.01,1.00,2.44,-4.76,-5.13
1777399465783,2096069,0.02,-0.01,1.00,2.26,-4.76,-5.07
1777399465783,2096089,0.02,-0.01,1.00,2.38,-4.70,-5.00
1777399465783,2096109,0.02,-0.01,1.00,2.62,-4.76,-4.58
1777399465783,2096129,0.02,-0.01,1.00,2.44,-4.70,-4.94
1777399465783,2096139,0.02,-0.01,1.00,2.50,-4.76,-4.94
1777399465784,2096149,0.02,-0.01,1.00,2.50,-4.70,-4.94
1777399465784,2096159,0.02,-0.01,1.00,2.56,-4.76,-4.88
1777399465784,2096169,0.02,-0.01,1.00,2.56,-4.82,-4.64
1777399465784,2096179,0.02,-0.01,1.00,2.50,-4.70,-4.58
1777399465784,2096189,0.02,-0.01,1.00,2.44,-4.82,-4.76
1777399465784,2096199,0.02,-0.01,1.00,2.44,-4.76,-4.88
1777399465784,2096209,0.07,-0.01,1.01,2.44,-4.64,-4.88
1777399465785,2096219,0.19,-0.05,1.01,2.44,-4.64,-6.77
1777399465785,2096229,0.15,0.01,1.00,2.50,-4.52,-13.61
1777399465785,2096239,0.19,0.02,1.01,2.56,-4.21,-18.19
1777399465785,2096249,0.23,0.05,1.00,2.44,-4.33,-24.60
1777399465785,2096259,0.19,0.04,1.04,3.05,-3.91,-26.37
1777399465785,2096269,0.15,0.00,1.02,2.87,-4.39,-23.62
1777399465785,2096279,0.12,-0.05,1.03,2.62,-4.94,-21.42
1777399465785,2096289,0.05,-0.07,1.00,2.32,-4.88,-21.24
1777399465785,2096299,0.01,-0.08,1.00,2.50,-4.58,-21.85
1777399465786,2096309,0.08,-0.08,0.98,2.44,-4.58,-26.49
1777399465786,2096319,0.12,-0.00,1.00,2.93,-4.03,-39.18
1777399465786,2096329,0.08,0.11,1.02,2.99,-3.97,-47.18
1777399465786,2096339,0.06,0.08,1.02,2.62,-4.27,-41.87
1777399465786,2096349,0.06,0.01,1.02,2.26,-4.39,-38.57
1777399465786,2096359,0.05,-0.01,1.00,2.62,-4.52,-42.30
1777399465786,2096369,0.07,-0.05,1.01,2.75,-4.15,-45.53
1777399465786,2096379,0.08,-0.07,0.97,2.99,-4.39,-46.14
1777399465786,2096389,0.15,-0.09,1.00,2.93,-4.46,-46.94
1777399465787,2096409,0.12,-0.03,1.02,2.87,-4.27,-52.25
1777399465787,2096429,0.15,-0.02,1.00,2.75,-4.27,-57.56
1777399465787,2096449,-0.04,-0.08,1.03,2.69,-4.58,-48.10
1777399465787,2096469,-0.11,-0.06,1.00,3.11,-3.91,-50.96
1777399465787,2096479,-0.15,-0.00,0.99,2.99,-4.33,-54.50
1777399465787,2096489,-0.16,0.07,0.97,2.99,-4.21,-56.46
1777399465787,2096499,-0.20,0.11,1.02,3.05,-3.97,-53.10
1777399465787,2096509,-0.21,0.08,1.00,2.32,-4.58,-47.18
1777399465788,2096519,-0.21,0.02,1.00,3.05,-4.03,-41.08
1777399465788,2096529,-0.23,-0.01,1.03,2.50,-4.46,-39.25
1777399465788,2096539,-0.20,-0.01,1.00,2.56,-4.70,-37.96
1777399465788,2096549,-0.17,0.02,0.98,2.99,-4.03,-35.52
1777399465788,2096559,-0.18,0.02,1.00,2.93,-3.91,-29.24
1777399465788,2096569,-0.16,-0.05,1.01,2.56,-4.64,-20.51
1777399465788,2096579,-0.10,-0.07,0.99,2.38,-4.82,-17.70
1777399465788,2096589,-0.04,-0.07,1.00,2.50,-4.09,-17.52
1777399465788,2096599,0.01,-0.04,1.00,2.62,-4.64,-15.81
1777399465789,2096609,0.03,-0.02,1.00,2.44,-4.58,-10.86
1777399465789,2096619,0.04,-0.02,1.00,2.44,-4.64,-4.82
1777399465789,2096629,0.04,-0.04,1.00,2.44,-4.70,-2.56
1777399465789,2096639,0.02,-0.01,1.00,2.38,-4.70,-4.64
1777399465789,2096649,0.01,-0.01,1.00,2.38,-4.76,-5.07
1777399465789,2096659,0.02,-0.01,1.00,2.38,-4.88,-4.88
1777399465789,2096669,0.02,-0.01,1.00,2.44,-4.82,-4.76
1777399465789,2096679,0.01,-0.01,1.00,2.56,-4.76,-4.52
1777399465789,2096689,0.01,-0.01,1.00,2.50,-4.82,-4.64
1777399465790,2096699,0.01,-0.01,1.00,2.56,-4.82,-4.64
1777399465790,2096709,0.02,-0.01,1.00,2.50,-4.76,-4.70
1777399465790,2096719,0.02,-0.00,1.00,2.50,-4.82,-4.76
1777399465790,2096729,0.02,-0.01,1.00,2.44,-4.76,-4.94
1777399465790,2096739,0.02,-0.01,1.00,2.32,-4.76,-5.07
1777399465790,2096759,0.02,-0.01,1.00,2.50,-4.82,-4.76
1777399465790,2096779,0.01,-0.01,1.00,2.38,-4.70,-4.64
1777399465790,2096799,0.02,-0.00,1.00,2.50,-4.82,-4.70
1777399465790,2096819,0.02,-0.01,1.00,2.44,-4.70,-4.82
1777399465791,2096829,0.02,-0.01,1.00,2.26,-4.76,-5.13
1777399465791,2096839,0.01,-0.00,1.00,2.38,-4.76,-5.00
1777399465791,2096849,0.01,-0.00,1.00,2.50,-4.76,-4.70
1777399465791,2096859,0.02,-0.01,1.00,2.38,-4.70,-4.88
1777399465791,2096869,0.02,-0.01,1.00,2.44,-4.76,-5.13
1777399465791,2096879,0.02,-0.01,1.00,2.44,-4.76,-4.94
1777399465791,2096889,0.02,-0.00,1.00,2.50,-4.76,-4.76
1777399465791,2096899,0.02,-0.00,1.00,2.50,-4.76,-4.82
1777399465791,2096909,0.02,-0.01,1.00,2.44,-4.76,-5.07
1777399465792,2096919,0.02,-0.01,1.00,2.44,-4.70,-5.00
1777399465792,2096929,0.01,-0.01,1.00,2.38,-4.76,-5.00
1777399465792,2096939,0.02,-0.01,1.00,2.38,-4.70,-4.94
1777399465792,2096949,0.02,-0.00,1.00,2.44,-4.76,-4.88
1777399465792,2096959,0.02,-0.01,1.00,2.50,-4.70,-4.70
1777399465792,2096969,0.01,-0.01,1.00,2.50,-4.70,-4.58
1777399465792,2096979,0.02,-0.01,1.00,2.56,-4.64,-4.58
1777399465792,2096989,0.02,-0.00,1.00,2.50,-4.64,-4.70
1777399465792,2096999,0.02,-0.00,1.00,2.50,-4.82,-4.70
1777399465793,2097009,0.02,-0.01,1.00,2.50,-4.76,-4.70
1777399465793,2097019,0.02,-0.00,1.00,2.50,-4.76,-4.64
1777399465793,2097029,0.01,-0.01,1.00,2.44,-4.82,-4.70
1777399465793,2097039,0.02,-0.00,1.00,2.38,-4.88,-4.94
1777399465793,2097049,0.02,-0.00,0.99,2.20,-4.64,-5.19
1777399465793,2097059,0.01,-0.00,1.00,2.14,-4.88,-5.00
1777399465793,2097069,0.02,-0.01,1.03,2.20,-4.82,-4.70
1777399465793,2097079,0.02,-0.01,1.01,2.50,-4.70,-4.82
1777399465793,2097099,0.01,-0.00,0.99,2.50,-4.76,-4.64
1777399465794,2097119,0.02,-0.01,1.01,2.56,-4.70,-4.70
1777399465794,2097139,0.01,-0.00,1.00,2.56,-4.70,-4.70
1777399465794,2097159,0.01,-0.01,1.00,2.44,-4.70,-4.76
1777399465794,2097169,0.02,-0.01,1.00,2.50,-4.76,-4.76
1777399465794,2097179,0.02,-0.01,1.00,2.56,-4.82,-4.70
1777399465794,2097189,0.02,-0.01,1.00,2.44,-4.70,-4.76
1777399465794,2097199,0.01,-0.00,1.00,2.44,-4.70,-4.94
1777399465794,2097209,0.02,-0.00,0.99,2.38,-4.70,-5.07
1777399465794,2097219,0.01,-0.01,1.00,2.32,-4.82,-5.19
1777399465794,2097229,0.02,-0.01,1.02,2.26,-4.82,-5.19
1777399465795,2097239,0.02,-0.00,1.00,2.38,-4.70,-5.19
1777399465795,2097249,0.01,-0.00,0.99,2.50,-4.76,-4.94
1777399465795,2097259,0.02,-0.00,1.00,2.50,-4.76,-4.70
1777399465795,2097269,0.02,-0.01,1.00,2.44,-4.76,-4.82
1777399465795,2097279,0.02,-0.01,1.00,2.32,-4.64,-5.07
1777399465795,2097289,0.01,-0.01,1.01,2.50,-4.70,-4.94
1777399465795,2097299,0.02,-0.00,1.00,2.50,-4.76,-4.76
1777399465795,2097309,0.01,-0.00,1.00,2.50,-4.76,-4.76
1777399465795,2097319,0.02,-0.00,1.00,2.50,-4.76,-4.76
1777399465796,2097329,0.01,-0.01,1.00,2.44,-4.76,-4.82
1777399465796,2097339,0.02,-0.01,1.00,2.44,-4.76,-4.88
1777399465796,2097349,0.01,-0.01,1.00,2.38,-4.70,-4.94
1777399465796,2097359,0.02,-0.00,1.00,2.38,-4.76,-5.00
1777399465796,2097369,0.02,-0.01,1.00,2.38,-4.76,-5.00
1777399465796,2097379,0.02,-0.01,1.00,2.44,-4.70,-5.07
1777399465796,2097389,0.02,-0.00,1.00,2.44,-4.70,-5.00
1777399465796,2097399,0.01,-0.00,1.00,2.44,-4.70,-5.00
1777399465796,2097409,0.02,-0.00,1.00,2.44,-4.76,-4.88
1777399465797,2097419,0.02,-0.00,1.00,2.50,-4.76,-4.76
1777399465797,2097429,0.02,-0.01,1.00,2.44,-4.70,-4.88
1777399465797,2097449,0.02,-0.01,1.00,2.56,-4.76,-4.58
1777399465797,2097469,0.02,-0.01,1.00,2.38,-4.76,-5.07
1777399465797,2097489,0.02,-0.01,1.00,2.32,-4.70,-5.07
1777399465797,2097509,0.02,-0.00,1.00,2.50,-4.70,-4.58
1777399465797,2097519,0.01,-0.01,1.00,2.62,-4.76,-4.52
1777399465797,2097529,0.02,-0.01,1.00,2.56,-4.76,-4.58
1777399465797,2097539,0.02,-0.01,1.00,2.56,-4.76,-4.58
1777399465797,2097549,0.01,-0.01,1.00,2.50,-4.76,-4.70
1777399465798,2097559,0.02,-0.00,1.00,2.38,-4.76,-4.94
1777399465798,2097569,0.01,-0.00,1.00,2.44,-4.82,-5.07
1777399465798,2097579,0.01,-0.01,1.00,2.44,-4.76,-5.00
1777399465798,2097589,0.02,-0.01,1.00,2.44,-4.82,-4.76
1777399465798,2097599,0.02,-0.01,1.00,2.50,-4.82,-4.82
1777399465798,2097609,0.02,-0.01,1.00,2.50,-4.76,-4.94
1777399465798,2097619,0.02,-0.01,1.00,2.38,-4.70,-5.07
1777399465798,2097629,0.02,-0.00,1.00,2.32,-4.70,-5.13
1777399465798,2097639,0.02,-0.00,1.00,2.38,-4.76,-4.94
1777399465798,2097649,0.02,-0.01,1.00,2.56,-4.82,-4.58
1777399465799,2097659,0.02,-0.00,1.00,2.44,-4.70,-4.82
1777399465799,2097669,0.02,-0.00,1.00,2.44,-4.82,-5.13
1777399465799,2097679,0.02,-0.01,1.00,2.38,-4.70,-5.00
1777399465799,2097689,0.02,-0.01,1.00,2.50,-4.82,-4.88
1777399465799,2097699,0.02,-0.01,1.00,2.44,-4.76,-4.82
1777399465799,2097709,0.02,-0.01,1.00,2.44,-4.70,-4.82
1777399465799,2097719,0.01,-0.01,1.00,2.50,-4.76,-4.70
1777399465799,2097729,0.02,-0.01,1.00,2.56,-4.76,-4.64
1777399465799,2097739,0.02,-0.00,1.00,2.50,-4.82,-4.76
1777399465799,2097749,0.02,-0.01,1.00,2.38,-4.76,-4.94
1777399465800,2097759,0.02,-0.01,1.00,2.38,-4.70,-5.07
1777399465800,2097769,0.02,-0.01,1.00,2.32,-4.76,-5.25
1777399465800,2097789,0.02,-0.01,1.00,2.44,-4.76,-4.88
1777399465800,2097809,0.01,-0.00,1.00,2.38,-4.76,-5.00
1777399465800,2097829,0.01,-0.01,1.00,2.44,-4.82,-4.94
1777399465800,2097849,0.02,-0.01,1.00,2.50,-4.76,-4.88
1777399465800,2097859,0.02,-0.01,1.00,2.26,-4.76,-5.19
1777399465800,2097869,0.02,-0.01,1.00,2.44,-4.76,-4.94
1777399465800,2097879,0.01,-0.01,1.00,2.56,-4.76,-4.70
1777399465800,2097889,0.02,-0.01,1.00,2.50,-4.76,-4.94
1777399465801,2097899,0.02,-0.01,1.00,2.32,-4.76,-5.19
1777399465801,2097909,0.02,-0.00,1.00,2.32,-4.76,-5.19
1777399465801,2097919,0.02,-0.01,1.00,2.38,-4.70,-5.19
1777399465801,2097929,0.02,-0.01,1.00,2.32,-4.76,-5.13
1777399465801,2097939,0.02,-0.01,1.00,2.26,-4.76,-5.25
1777399465801,2097949,0.02,-0.01,1.00,2.38,-4.82,-4.94
1777399465801,2097959,0.01,-0.00,1.00,2.56,-4.76,-4.64
1777399465801,2097969,0.02,-0.01,1.00,2.44,-4.82,-4.82
1777399465801,2097979,0.02,-0.01,1.00,2.32,-4.76,-5.25
1777399465801,2097989,0.02,-0.01,1.00,2.44,-4.76,-5.00
1777399465802,2097999,0.01,-0.00,1.00,2.50,-4.76,-4.70
1777399465802,2098009,0.01,-0.01,1.00,2.44,-4.76,-4.70
1777399465802,2098019,0.02,-0.01,1.00,2.56,-4.76,-4.64
1777399465802,2098029,0.02,-0.00,1.00,2.38,-4.76,-4.82
1777399465802,2098039,0.02,-0.01,1.00,2.38,-4.76,-5.07
1777399465802,2098049,0.02,-0.01,1.00,2.38,-4.76,-4.82
1777399465802,2098059,0.02,-0.01,1.00,2.44,-4.88,-4.76
1777399465802,2098069,0.01,-0.01,1.00,2.50,-4.82,-4.64
1777399465802,2098079,0.01,-0.01,1.00,2.50,-4.70,-4.52
1777399465802,2098089,0.02,-0.01,1.00,2.50,-4.76,-4.76
1777399465803,2098099,0.01,-0.01,1.00,2.38,-4.70,-5.00
1777399465803,2098109,0.02,-0.01,1.00,2.38,-4.70,-5.07
1777399465803,2098119,0.02,-0.01,1.00,2.32,-4.70,-4.94
1777399465803,2098139,0.02,-0.00,1.00,2.44,-4.76,-4.82
1777399465803,2098159,0.02,-0.01,1.00,2.38,-4.76,-5.07
1777399465803,2098179,0.02,-0.00,1.00,2.38,-4.76,-4.94
1777399465803,2098199,0.02,-0.01,1.00,2.50,-4.82,-4.58
1777399465803,2098209,0.02,-0.01,1.00,2.50,-4.82,-4.58
1777399465803,2098219,0.02,-0.01,1.00,2.44,-4.76,-4.82
1777399465804,2098229,0.02,-0.00,1.00,2.32,-4.76,-5.00
1777399465804,2098239,0.02,-0.00,1.00,2.38,-4.82,-5.07
1777399465804,2098249,0.02,-0.01,1.00,2.38,-4.70,-5.13
1777399465804,2098259,0.02,-0.01,1.00,2.38,-4.76,-5.19
1777399465804,2098269,0.02,-0.01,1.00,2.38,-4.76,-5.19
1777399465804,2098279,0.02,-0.01,1.00,2.44,-4.70,-4.94
1777399465804,2098289,0.02,-0.00,1.00,2.50,-4.76,-4.58
1777399465804,2098299,0.01,-0.01,1.00,2.62,-4.76,-4.64
1777399465804,2098309,0.01,-0.01,1.00,2.56,-4.76,-4.64
1777399465805,2098319,0.01,-0.01,1.00,2.56,-4.76,-4.64
1777399465805,2098329,0.02,-0.01,1.00,2.62,-4.76,-4.70
1777399465805,2098339,0.01,-0.01,1.00,2.56,-4.82,-4.70
1777399465805,2098349,0.02,-0.00,1.00,2.56,-4.82,-4.58
1777399465805,2098359,0.01,-0.01,1.00,2.50,-4.82,-4.58
1777399465805,2098369,0.02,-0.01,1.00,2.50,-4.76,-4.70
1777399465805,2098379,0.01,-0.01,1.00,2.56,-4.76,-4.70
1777399465805,2098389,0.02,-0.00,1.00,2.50,-4.70,-4.70
1777399465806,2098399,0.02,-0.01,1.00,2.56,-4.82,-4.58
1777399465806,2098409,0.01,-0.00,1.00,2.62,-4.76,-4.52
1777399465806,2098419,0.02,-0.01,1.00,2.44,-4.76,-4.88
1777399465806,2098429,0.02,-0.01,1.00,2.32,-4.64,-5.19
1777399465806,2098439,0.02,-0.00,1.00,2.50,-4.76,-4.88
1777399465806,2098449,0.01,-0.01,1.00,2.56,-4.70,-4.64
1777399465806,2098459,0.02,-0.01,1.00,2.56,-4.64,-4.70
1777399465806,2098469,0.02,-0.00,1.00,2.50,-4.76,-4.70
1777399465806,2098489,0.01,-0.01,1.00,2.44,-4.82,-4.82
1777399465806,2098509,0.02,-0.00,1.00,2.38,-4.76,-5.07
1777399465807,2098529,0.01,-0.01,1.00,2.44,-4.88,-4.88
1777399465807,2098539,0.02,-0.01,1.00,2.50,-4.76,-4.64
1777399465807,2098549,0.02,-0.01,1.00,2.44,-4.76,-4.70
1777399465807,2098559,0.02,-0.01,1.00,2.50,-4.70,-4.76
1777399465807,2098569,0.02,-0.00,1.00,2.56,-4.70,-4.76
1777399465807,2098579,0.01,-0.00,1.00,2.56,-4.76,-4.58
1777399465807,2098589,0.02,-0.01,1.00,2.50,-4.76,-4.76
1777399465807,2098599,0.02,-0.01,1.00,2.38,-4.76,-4.94
1777399465807,2098609,0.02,-0.01,1.00,2.38,-4.82,-5.07
1777399465807,2098619,0.02,-0.01,1.00,2.38,-4.76,-5.07
1777399465808,2098629,0.02,-0.01,1.00,2.38,-4.70,-5.07
1777399465808,2098639,0.02,-0.00,1.00,2.50,-4.70,-4.88
1777399465808,2098649,0.02,-0.01,1.00,2.32,-4.70,-5.00
1777399465808,2098659,0.02,-0.01,1.00,2.38,-4.76,-5.13
1777399465808,2098669,0.02,-0.01,1.00,2.44,-4.82,-5.07
1777399465808,2098679,0.02,-0.01,1.00,2.44,-4.76,-4.94
1777399465808,2098689,0.02,-0.01,1.00,2.44,-4.82,-4.88
1777399465808,2098699,0.02,-0.01,1.00,2.56,-4.76,-4.70
1777399465808,2098709,0.02,-0.01,1.00,2.44,-4.76,-5.00
1777399465808,2098719,0.02,-0.01,1.00,2.32,-4.70,-5.19
1777399465809,2098729,0.02,-0.01,1.00,2.26,-4.82,-5.13
1777399465809,2098739,0.02,-0.01,1.00,2.32,-4.82,-5.07
1777399465809,2098749,0.02,-0.01,1.00,2.50,-4.76,-4.94
1777399465809,2098759,0.01,-0.01,1.00,2.56,-4.82,-4.70
1777399465809,2098769,0.02,-0.01,1.00,2.50,-4.82,-4.88
1777399465809,2098779,0.02,-0.01,1.00,2.44,-4.70,-5.00
1777399465809,2098789,0.02,-0.00,1.00,2.38,-4.76,-5.00
1777399465809,2098799,0.01,-0.01,1.00,2.38,-4.76,-4.88
1777399465809,2098809,0.02,-0.01,1.00,2.38,-4.76,-5.00
1777399465809,2098829,0.02,-0.00,1.00,2.56,-4.82,-4.58
1777399465810,2098849,0.02,-0.01,1.00,2.32,-4.70,-5.07
1777399465810,2098869,0.02,-0.01,1.00,2.50,-4.76,-4.64
1777399465810,2098889,0.02,-0.01,1.00,2.56,-4.76,-4.64
1777399465810,2098899,0.01,-0.00,1.00,2.50,-4.76,-4.70
1777399465810,2098909,0.02,-0.01,1.00,2.38,-4.76,-4.82
1777399465810,2098919,0.02,-0.00,1.00,2.38,-4.70,-5.07
1777399465810,2098929,0.02,-0.00,1.00,2.26,-4.82,-5.25
1777399465810,2098939,0.01,-0.01,1.00,2.32,-4.82,-5.00
1777399465810,2098949,0.01,-0.01,1.00,2.56,-4.82,-4.76
1777399465810,2098959,0.01,-0.01,1.01,2.56,-4.76,-4.70
1777399465811,2098969,0.01,-0.01,1.00,2.50,-4.82,-4.76
1777399465811,2098979,0.01,-0.01,1.00,2.50,-4.82,-4.76
1777399465811,2098989,0.02,-0.01,1.00,2.50,-4.82,-4.76
1777399465811,2098999,0.01,-0.01,1.00,2.50,-4.76,-4.70
1777399465811,2099009,0.01,-0.00,1.00,2.56,-4.82,-4.70
1777399465811,2099019,0.02,-0.00,1.00,2.44,-4.76,-4.88
1777399465811,2099029,0.02,-0.01,1.00,2.26,-4.76,-5.19
1777399465811,2099039,0.02,-0.01,1.00,2.38,-4.76,-5.19
1777399465811,2099049,0.02,-0.01,1.00,2.32,-4.88,-5.13
1777399465811,2099059,0.02,-0.01,1.00,2.32,-4.82,-5.19
1777399465812,2099069,0.02,-0.01,1.00,2.32,-4.70,-5.13
1777399465812,2099079,0.02,-0.00,1.00,2.44,-4.76,-4.94
1777399465812,2099089,0.02,-0.00,1.00,2.50,-4.76,-4.82
1777399465812,2099099,0.02,-0.00,1.00,2.44,-4.76,-5.07
1777399465812,2099109,0.02,-0.00,1.00,2.32,-4.76,-5.19
1777399465812,2099119,0.02,-0.00,1.00,2.44,-4.76,-5.00
1777399465812,2099129,0.02,-0.01,1.00,2.50,-4.76,-4.76
1777399465812,2099139,0.02,-0.01,1.00,2.50,-4.70,-4.70
1777399465812,2099149,0.01,-0.00,1.00,2.50,-4.76,-4.52
1777399465812,2099159,0.02,-0.01,1.00,2.44,-4.76,-5.07
1777399465812,2099179,0.02,-0.01,1.00,2.44,-4.70,-4.82
1777399465813,2099199,0.02,-0.01,1.00,2.44,-4.82,-4.88
1777399465813,2099219,0.02,-0.01,1.00,2.50,-4.76,-4.58
1777399465813,2099229,0.02,-0.01,1.00,2.50,-4.76,-4.88
1777399465813,2099239,0.02,-0.01,1.00,2.44,-4.70,-5.07
1777399465813,2099249,0.02,-0.00,1.00,2.44,-4.76,-5.00
1777399465813,2099259,0.01,-0.00,1.00,2.50,-4.76,-4.82
1777399465813,2099269,0.02,-0.01,1.00,2.32,-4.76,-4.94
1777399465813,2099279,0.02,-0.01,1.00,2.32,-4.64,-5.07
1777399465813,2099289,0.01,-0.01,1.00,2.44,-4.76,-4.88
1777399465813,2099299,0.01,-0.01,1.00,2.44,-4.70,-4.76
1777399465814,2099309,0.01,-0.00,1.00,2.56,-4.76,-4.70
1777399465814,2099319,0.01,-0.00,1.00,2.62,-4.76,-4.70
1777399465814,2099329,0.02,-0.01,1.00,2.44,-4.70,-4.88
1777399465814,2099339,0.02,-0.01,1.00,2.38,-4.70,-5.07
1777399465814,2099349,0.02,-0.01,1.00,2.38,-4.76,-5.00
1777399465814,2099359,0.01,-0.01,1.00,2.44,-4.88,-4.88
1777399465814,2099369,0.02,-0.00,1.00,2.38,-4.70,-5.00
1777399465814,2099379,0.02,-0.01,1.00,2.32,-4.70,-5.19
1777399465814,2099389,0.02,-0.01,1.00,2.44,-4.76,-5.00
1777399465814,2099399,0.02,-0.01,1.00,2.44,-4.82,-4.88
1777399465814,2099409,0.02,-0.01,1.00,2.50,-4.76,-4.76
1777399465815,2099419,0.02,-0.00,1.00,2.50,-4.70,-4.64
1777399465815,2099429,0.02,-0.01,1.00,2.44,-4.76,-4.82
1777399465815,2099439,0.02,-0.01,1.00,2.44,-4.76,-4.94
1777399465815,2099449,0.02,-0.01,1.00,2.50,-4.70,-4.88
1777399465815,2099459,0.02,-0.00,1.00,2.56,-4.70,-4.88
1777399465815,2099469,0.02,-0.00,1.00,2.44,-4.70,-4.94
1777399465815,2099479,0.02,-0.01,1.00,2.38,-4.76,-5.19
1777399465815,2099489,0.02,-0.01,1.00,2.38,-4.70,-5.07
1777399465815,2099499,0.02,-0.01,1.00,2.44,-4.76,-4.82
1777399465816,2099519,0.02,-0.00,1.00,2.50,-4.82,-4.82
1777399465816,2099539,0.02,-0.01,1.00,2.32,-4.70,-5.07
1777399465816,2099559,0.02,-0.00,1.00,2.38,-4.76,-5.13
1777399465816,2099579,0.02,-0.01,1.00,2.44,-4.76,-4.88
1777399465816,2099589,0.02,-0.01,1.00,2.44,-4.82,-4.88
1777399465816,2099599,0.02,-0.01,1.00,2.44,-4.76,-4.88
1777399465816,2099609,0.02,-0.00,1.00,2.44,-4.76,-4.88
1777399465816,2099619,0.02,-0.00,1.00,2.44,-4.76,-4.82
1777399465816,2099629,0.01,-0.00,1.00,2.44,-4.82,-4.70
1777399465817,2099639,0.01,-0.01,1.00,2.50,-4.82,-4.64
1777399465817,2099649,0.02,-0.01,1.00,2.44,-4.76,-4.64
1777399465817,2099659,0.02,-0.01,1.00,2.44,-4.70,-4.82
1777399465817,2099669,0.02,-0.00,1.00,2.44,-4.76,-5.07
1777399465817,2099679,0.01,-0.01,1.00,2.44,-4.70,-4.82
1777399465817,2099689,0.02,-0.00,1.00,2.62,-4.82,-4.58
1777399465817,2099699,0.02,-0.01,1.00,2.44,-4.76,-4.88
1777399465817,2099709,0.02,-0.01,1.00,2.38,-4.76,-5.13
1777399465817,2099719,0.02,-0.01,1.00,2.38,-4.76,-5.00
1777399465818,2099729,0.02,-0.01,1.00,2.50,-4.70,-4.82
1777399465818,2099739,0.02,-0.00,1.00,2.50,-4.76,-4.76
1777399465818,2099749,0.02,-0.00,1.00,2.50,-4.82,-4.64
1777399465818,2099759,0.02,-0.01,1.00,2.62,-4.76,-4.64
1777399465818,2099769,0.02,-0.00,1.00,2.62,-4.82,-4.70
1777399465818,2099779,0.02,-0.01,1.00,2.44,-4.76,-4.94
1777399465818,2099789,0.02,-0.01,1.00,2.38,-4.70,-5.13
1777399465818,2099799,0.02,-0.01,1.00,2.38,-4.70,-5.19
1777399465818,2099809,0.02,-0.01,1.00,2.32,-4.70,-5.13
1777399465819,2099819,0.02,-0.01,1.00,2.38,-4.76,-5.00
1777399465819,2099829,0.01,-0.01,1.00,2.56,-4.76,-4.64
1777399465819,2099839,0.01,-0.01,1.00,2.56,-4.82,-4.76
1777399465819,2099849,0.02,-0.00,1.00,2.38,-4.82,-4.94
1777399465819,2099869,0.02,-0.01,1.00,2.32,-4.64,-5.13
1777399465819,2099889,0.02,-0.01,1.00,2.32,-4.70,-5.19
1777399465819,2099909,0.02,-0.00,1.00,2.38,-4.76,-5.19
1777399465819,2099919,0.02,-0.01,1.00,2.32,-4.76,-5.19
1777399465819,2099929,0.02,-0.01,1.00,2.38,-4.76,-5.13
1777399465819,2099939,0.02,-0.01,1.00,2.26,-4.76,-5.13
1777399465820,2099949,0.01,-0.00,1.00,2.38,-4.82,-4.88
1777399465820,2099959,0.02,-0.00,1.00,2.56,-4.70,-4.58
1777399465820,2099969,0.02,-0.00,1.00,2.50,-4.76,-4.70
1777399465820,2099979,0.02,-0.01,1.00,2.44,-4.76,-4.82
1777399465820,2099989,0.02,-0.01,1.00,2.44,-4.88,-4.64
1777399465820,2099999,0.01,-0.01,1.00,2.50,-4.76,-4.58
1777399465820,2100009,0.02,-0.00,1.00,2.44,-4.70,-4.88
1777399465820,2100019,0.02,-0.01,1.00,2.38,-4.70,-5.07
1777399465820,2100029,0.02,-0.01,1.00,2.38,-4.76,-5.07
1777399465820,2100039,0.02,-0.00,1.00,2.44,-4.76,-4.94
1777399465821,2100049,0.01,-0.00,1.00,2.50,-4.76,-4.70
1777399465821,2100059,0.02,-0.01,1.00,2.56,-4.76,-4.58
1777399465821,2100069,0.02,-0.01,1.00,2.56,-4.76,-4.64
1777399465821,2100079,0.02,-0.01,1.00,2.50,-4.82,-4.64
1777399465821,2100089,0.02,-0.00,1.00,2.44,-4.82,-4.76
1777399465821,2100099,0.02,-0.00,1.00,2.44,-4.82,-4.94
1777399465821,2100109,0.02,-0.01,1.00,2.44,-4.76,-4.82
1777399465821,2100119,0.02,-0.01,1.00,2.50,-4.76,-4.76
1777399465821,2100129,0.02,-0.00,1.00,2.32,-4.82,-4.94
1777399465821,2100139,0.02,-0.01,1.00,2.44,-4.82,-5.00
1777399465821,2100149,0.02,-0.00,1.00,2.32,-4.82,-5.13
1777399465822,2100159,0.02,-0.01,1.00,2.38,-4.82,-5.07
1777399465822,2100169,0.02,-0.00,1.00,2.44,-4.76,-5.00
1777399465822,2100179,0.01,-0.01,1.00,2.44,-4.70,-4.88
1777399465822,2100189,0.02,-0.00,1.00,2.44,-4.76,-5.00
1777399465822,2100209,0.02,-0.01,1.00,2.50,-4.70,-5.00
1777399465822,2100229,0.02,-0.01,1.00,2.38,-4.76,-5.00
1777399465822,2100249,0.01,-0.01,1.00,2.56,-4.82,-4.64
1777399465822,2100269,0.02,-0.01,1.00,2.38,-4.76,-4.88
1777399465822,2100279,0.02,-0.01,1.00,2.56,-4.70,-4.70
1777399465822,2100289,0.02,-0.00,1.00,2.50,-4.70,-4.70
1777399465822,2100299,0.01,-0.00,1.00,2.50,-4.82,-4.70
1777399465823,2100309,0.01,-0.01,1.00,2.50,-4.82,-4.58
1777399465823,2100319,0.02,-0.01,1.00,2.44,-4.70,-4.64
1777399465823,2100329,0.01,-0.01,1.00,2.44,-4.82,-4.82
1777399465823,2100339,0.02,-0.00,1.00,2.38,-4.76,-5.00
1777399465823,2100349,0.02,-0.01,1.00,2.32,-4.82,-5.19
1777399465823,2100359,0.01,-0.01,1.00,2.38,-4.82,-4.88
1777399465823,2100369,0.02,-0.00,1.00,2.56,-4.70,-4.58
1777399465823,2100379,0.02,-0.01,1.00,2.56,-4.76,-4.70
1777399465823,2100389,0.02,-0.01,1.00,2.44,-4.64,-4.94
1777399465823,2100399,0.02,-0.00,1.00,2.38,-4.76,-5.07
1777399465824,2100409,0.02,-0.00,1.00,2.38,-4.70,-5.13
1777399465824,2100419,0.02,-0.00,1.00,2.32,-4.70,-5.19
1777399465824,2100429,0.02,-0.00,1.00,2.32,-4.76,-5.25
1777399465824,2100439,0.02,-0.00,1.00,2.38,-4.76,-5.25
1777399465824,2100449,0.02,-0.01,1.00,2.32,-4.76,-5.19
1777399465824,2100459,0.02,-0.01,1.00,2.44,-4.76,-4.88
1777399465824,2100469,0.02,-0.01,1.00,2.50,-4.70,-4.52
1777399465824,2100479,0.02,-0.01,1.00,2.44,-4.76,-4.88
1777399465824,2100489,0.02,-0.01,1.00,2.32,-4.82,-5.13
1777399465824,2100499,0.01,-0.01,1.00,2.44,-4.82,-4.94
1777399465825,2100509,0.02,-0.01,1.00,2.50,-4.76,-4.64
1777399465825,2100519,0.02,-0.00,1.00,2.50,-4.76,-4.76
1777399465825,2100529,0.01,-0.00,1.00,2.32,-4.76,-5.07
1777399465825,2100539,0.01,-0.00,1.00,2.32,-4.76,-4.82
1777399465825,2100559,0.02,-0.01,1.00,2.38,-4.76,-4.94
1777399465825,2100579,0.02,-0.00,1.00,2.56,-4.76,-4.70
1777399465825,2100599,0.01,-0.01,1.00,2.50,-4.82,-4.76
1777399465825,2100619,0.02,-0.01,1.00,2.44,-4.76,-4.76
1777399465825,2100629,0.02,-0.01,1.00,2.56,-4.76,-4.70
1777399465826,2100639,0.02,-0.01,1.00,2.50,-4.76,-4.64
1777399465826,2100649,0.02,-0.01,1.00,2.56,-4.82,-4.58
1777399465826,2100659,0.01,-0.01,1.00,2.56,-4.70,-4.64
1777399465826,2100669,0.01,-0.00,1.00,2.62,-4.70,-4.70
1777399465826,2100679,0.02,-0.01,1.00,2.69,-4.88,-4.70
1777399465826,2100689,0.02,-0.01,1.00,2.50,-4.76,-4.82
1777399465826,2100699,0.02,-0.01,1.00,2.38,-4.76,-4.94
1777399465826,2100709,0.02,-0.01,1.00,2.32,-4.70,-5.13
1777399465826,2100719,0.02,-0.01,1.00,2.26,-4.64,-5.13
1777399465826,2100729,0.02,-0.01,1.00,2.26,-4.70,-5.19
1777399465827,2100739,0.02,-0.01,1.00,2.32,-4.76,-5.19
1777399465827,2100749,0.02,-0.01,1.00,2.32,-4.70,-5.19
1777399465827,2100759,0.02,-0.01,1.00,2.32,-4.64,-5.19
1777399465827,2100769,0.02,-0.00,1.00,2.32,-4.76,-5.19
1777399465827,2100779,0.01,-0.01,1.00,2.32,-4.76,-5.19
1777399465827,2100789,0.02,-0.00,1.00,2.38,-4.82,-5.07
1777399465827,2100799,0.02,-0.01,1.00,2.44,-4.76,-4.88
1777399465827,2100809,0.01,-0.00,1.00,2.50,-4.76,-4.82
1777399465828,2100819,0.02,-0.01,1.00,2.56,-4.88,-4.52
1777399465828,2100829,0.01,-0.01,1.00,2.56,-4.70,-4.52
1777399465828,2100839,0.02,-0.01,1.00,2.56,-4.70,-4.64
1777399465828,2100849,0.02,-0.01,1.00,2.56,-4.70,-4.52
1777399465828,2100859,0.02,-0.00,1.00,2.56,-4.76,-4.52
1777399465828,2100869,0.01,-0.01,1.00,2.56,-4.76,-4.58
1777399465828,2100879,0.02,-0.00,1.00,2.50,-4.64,-4.76
1777399465828,2100899,0.02,-0.00,1.00,2.44,-4.70,-4.94
1777399465828,2100919,0.02,-0.01,1.00,2.50,-4.70,-4.58
1777399465828,2100939,0.02,-0.01,1.00,2.50,-4.82,-4.94
1777399465829,2100959,0.02,-0.00,1.00,2.38,-4.82,-5.07
1777399465829,2100969,0.01,-0.01,1.00,2.38,-4.76,-4.94
1777399465829,2100979,0.02,-0.01,1.00,2.38,-4.76,-4.88
1777399465829,2100989,0.02,-0.01,1.00,2.44,-4.82,-4.82
1777399465829,2100999,0.02,-0.01,1.00,2.38,-4.76,-4.76
1777399465829,2101009,0.02,-0.00,1.00,2.44,-4.82,-4.76
1777399465829,2101019,0.02,-0.01,1.00,2.44,-4.70,-4.82
1777399465829,2101029,0.01,-0.00,1.00,2.44,-4.76,-5.00
1777399465829,2101039,0.02,-0.00,1.00,2.44,-4.88,-5.13
1777399465829,2101049,0.02,-0.00,1.00,2.38,-4.70,-5.25
1777399465829,2101059,0.01,-0.01,1.00,2.44,-4.70,-5.00
1777399465830,2101069,0.02,-0.01,1.00,2.44,-4.70,-4.76
1777399465830,2101079,0.02,-0.01,1.00,2.44,-4.76,-5.00
1777399465830,2101089,0.02,-0.00,1.00,2.32,-4.76,-5.25
1777399465830,2101099,0.02,-0.01,1.00,2.44,-4.70,-4.94
1777399465830,2101109,0.02,-0.00,1.00,2.50,-4.76,-4.70
1777399465830,2101119,0.02,-0.01,1.00,2.44,-4.70,-4.70
1777399465830,2101129,0.02,-0.01,1.00,2.50,-4.76,-4.82
1777399465830,2101139,0.02,-0.00,1.00,2.44,-4.82,-4.94
1777399465830,2101149,0.02,-0.01,1.00,2.32,-4.70,-5.25
1777399465830,2101159,0.02,-0.01,1.00,2.38,-4.70,-5.25
1777399465831,2101169,0.02,-0.01,1.00,2.32,-4.76,-5.19
1777399465831,2101179,0.02,-0.01,1.00,2.38,-4.76,-5.25
1777399465831,2101189,0.02,-0.01,1.00,2.38,-4.70,-5.13
1777399465831,2101199,0.02,-0.00,0.99,2.38,-4.76,-4.94
1777399465831,2101209,0.01,-0.00,1.00,2.44,-4.70,-4.94
1777399465831,2101219,0.01,-0.00,1.00,2.50,-4.70,-4.82
1777399465831,2101229,0.02,-0.01,1.00,2.50,-4.82,-4.64
1777399465831,2101249,0.02,-0.01,1.00,2.50,-4.76,-4.88
1777399465831,2101269,0.02,-0.00,1.00,2.38,-4.76,-5.00
1777399465831,2101289,0.02,-0.01,1.00,2.50,-4.76,-4.82
1777399465832,2101309,0.01,-0.00,1.00,2.44,-4.82,-4.88
1777399465832,2101319,0.02,-0.01,1.00,2.38,-4.76,-5.19
1777399465832,2101329,0.02,-0.01,1.00,2.38,-4.76,-5.07
1777399465832,2101339,0.02,-0.01,1.00,2.44,-4.76,-5.07
1777399465832,2101349,0.02,-0.01,1.00,2.44,-4.70,-5.00
1777399465832,2101359,0.01,-0.00,1.00,2.44,-4.76,-5.00
1777399465832,2101369,0.01,-0.00,1.00,2.44,-4.70,-4.88
1777399465832,2101379,0.02,-0.01,1.00,2.44,-4.70,-4.76
1777399465832,2101389,0.02,-0.01,1.00,2.50,-4.70,-4.76
1777399465832,2101399,0.02,-0.00,1.00,2.56,-4.82,-4.58
1777399465832,2101409,0.02,-0.00,1.00,2.56,-4.76,-4.58
1777399465833,2101419,0.02,-0.01,1.00,2.56,-4.76,-4.58
1777399465833,2101429,0.02,-0.01,1.00,2.50,-4.76,-4.70
1777399465833,2101439,0.02,-0.01,1.00,2.38,-4.82,-5.00
1777399465833,2101449,0.02,-0.01,1.00,2.38,-4.76,-5.07
1777399465833,2101459,0.01,-0.00,1.00,2.38,-4.70,-5.13
1777399465833,2101469,0.01,-0.00,1.00,2.50,-4.76,-4.88
1777399465833,2101479,0.01,-0.00,1.00,2.62,-4.76,-4.46
1777399465833,2101489,0.02,-0.00,1.00,2.44,-4.82,-4.82
1777399465833,2101499,0.02,-0.00,1.00,2.26,-4.64,-5.19
1777399465833,2101509,0.02,-0.00,1.00,2.38,-4.76,-5.19
1777399465834,2101519,0.02,-0.01,1.00,2.38,-4.76,-5.00
1777399465834,2101529,0.02,-0.00,1.00,2.50,-4.70,-4.82
1777399465834,2101539,0.02,-0.01,1.00,2.56,-4.70,-4.58
1777399465834,2101549,0.02,-0.00,1.00,2.50,-4.76,-4.76
1777399465834,2101559,0.02,-0.00,1.00,2.38,-4.76,-5.00
1777399465834,2101569,0.01,-0.00,1.00,2.50,-4.76,-4.76
1777399465834,2101589,0.01,-0.01,1.00,2.44,-4.76,-4.88
1777399465834,2101609,0.02,-0.01,1.00,2.38,-4.76,-5.00
1777399465834,2101629,0.02,-0.01,1.00,2.38,-4.70,-5.07
1777399465834,2101649,0.02,-0.00,1.00,2.56,-4.76,-4.70
1777399465835,2101659,0.01,-0.00,1.00,2.56,-4.88,-4.70
1777399465835,2101669,0.01,-0.00,1.00,2.56,-4.82,-4.64
1777399465835,2101679,0.02,-0.01,1.00,2.50,-4.76,-4.58
1777399465835,2101689,0.02,-0.01,1.00,2.56,-4.88,-4.46
1777399465835,2101699,0.01,-0.01,1.00,2.50,-4.82,-4.46
1777399465835,2101709,0.01,-0.00,1.00,2.44,-4.76,-4.64
1777399465835,2101719,0.02,-0.00,1.00,2.44,-4.82,-4.88
1777399465835,2101729,0.02,-0.01,1.00,2.26,-4.76,-5.19
1777399465835,2101739,0.02,-0.00,1.00,2.38,-4.70,-5.13
1777399465835,2101749,0.02,-0.00,1.00,2.38,-4.76,-5.07
1777399465836,2101759,0.02,-0.00,1.00,2.38,-4.70,-5.13
1777399465836,2101769,0.02,-0.01,1.00,2.32,-4.64,-5.19
1777399465836,2101779,0.02,-0.01,1.00,2.32,-4.76,-5.19
1777399465836,2101789,0.02,-0.00,1.00,2.32,-4.64,-5.19
1777399465836,2101799,0.02,-0.00,1.00,2.32,-4.76,-5.25
1777399465836,2101809,0.02,-0.00,1.00,2.32,-4.70,-5.25
1777399465836,2101819,0.02,-0.00,1.00,2.38,-4.70,-5.13
1777399465836,2101829,0.02,-0.01,1.00,2.44,-4.76,-4.94
1777399465836,2101839,0.02,-0.00,1.00,2.38,-4.70,-5.00
1777399465836,2101849,0.02,-0.00,1.00,2.32,-4.76,-5.25
1777399465837,2101859,0.02,-0.01,1.00,2.44,-4.76,-5.07
1777399465837,2101869,0.02,-0.01,1.00,2.50,-4.76,-4.88
1777399465837,2101879,0.02,-0.01,1.00,2.56,-4.70,-4.76
1777399465837,2101889,0.01,-0.00,1.00,2.56,-4.76,-4.64
1777399465837,2101899,0.02,-0.01,1.00,2.44,-4.82,-4.88
1777399465837,2101909,0.02,-0.00,1.00,2.26,-4.70,-5.25
1777399465837,2101919,0.02,-0.00,1.00,2.32,-4.76,-4.76
1777399465837,2101939,0.02,-0.01,1.00,2.56,-4.76,-4.58
1777399465837,2101959,0.02,-0.01,1.00,2.32,-4.82,-5.07
1777399465837,2101979,0.02,-0.01,1.00,2.50,-4.76,-4.82
1777399465838,2101999,0.02,-0.00,1.00,2.56,-4.82,-4.70
1777399465838,2102009,0.02,-0.00,1.00,2.50,-4.82,-4.70
1777399465838,2102019,0.02,-0.01,1.00,2.50,-4.82,-4.64
1777399465838,2102029,0.02,-0.01,1.00,2.56,-4.76,-4.58
1777399465838,2102039,0.02,-0.01,1.00,2.56,-4.64,-4.58
1777399465838,2102049,0.02,-0.01,1.00,2.56,-4.70,-4.52
1777399465838,2102059,0.02,-0.01,1.00,2.50,-4.82,-4.64
1777399465838,2102069,0.02,-0.01,1.00,2.38,-4.70,-4.94
1777399465838,2102079,0.02,-0.01,1.00,2.32,-4.76,-5.19
1777399465838,2102089,0.02,-0.01,1.00,2.32,-4.76,-5.13
1777399465839,2102099,0.02,-0.00,1.00,2.44,-4.76,-4.94
1777399465839,2102109,0.02,-0.00,1.00,2.44,-4.76,-5.00
1777399465839,2102119,0.02,-0.01,1.00,2.38,-4.64,-5.07
1777399465839,2102129,0.01,-0.01,1.00,2.50,-4.64,-4.88
1777399465839,2102139,0.01,-0.01,1.00,2.50,-4.76,-4.70
1777399465839,2102149,0.01,-0.01,1.00,2.56,-4.70,-4.64
1777399465839,2102159,0.01,-0.00,1.00,2.56,-4.82,-4.58
1777399465839,2102169,0.02,-0.01,1.00,2.38,-4.76,-4.76
1777399465839,2102179,0.02,-0.01,1.00,2.44,-4.76,-5.07
1777399465839,2102189,0.01,-0.01,1.00,2.44,-4.82,-4.94
1777399465839,2102199,0.02,-0.00,1.00,2.56,-4.82,-4.70
1777399465840,2102209,0.02,-0.01,1.00,2.50,-4.82,-4.76
1777399465840,2102219,0.02,-0.01,1.00,2.44,-4.76,-4.88
1777399465840,2102229,0.02,-0.00,1.00,2.38,-4.76,-4.88
1777399465840,2102239,0.01,-0.01,1.00,2.44,-4.82,-4.82
1777399465840,2102249,0.02,-0.01,1.00,2.38,-4.76,-4.94
1777399465840,2102259,0.02,-0.01,1.00,2.32,-4.70,-5.07
1777399465840,2102279,0.01,-0.01,1.00,2.50,-4.82,-4.64
1777399465840,2102299,0.02,-0.00,1.00,2.44,-4.76,-4.76
1777399465840,2102319,0.02,-0.01,1.00,2.44,-4.76,-4.88
1777399465840,2102339,0.02,-0.01,1.00,2.38,-4.70,-5.19
1777399465840,2102349,0.02,-0.01,1.00,2.50,-4.70,-5.00
1777399465841,2102359,0.02,-0.00,1.00,2.38,-4.70,-5.07
1777399465841,2102369,0.02,-0.00,1.00,2.32,-4.70,-5.19
1777399465841,2102379,0.02,-0.01,1.00,2.38,-4.76,-5.13
1777399465841,2102389,0.02,-0.00,1.00,2.44,-4.76,-4.88
1777399465841,2102399,0.02,-0.00,1.00,2.44,-4.70,-4.94
1777399465841,2102409,0.02,-0.01,1.00,2.44,-4.70,-4.94
1777399465841,2102419,0.02,-0.01,1.00,2.56,-4.76,-4.76
1777399465841,2102429,0.01,-0.00,1.00,2.62,-4.76,-4.52
1777399465841,2102439,0.01,-0.00,1.00,2.50,-4.70,-4.70
1777399465841,2102449,0.02,-0.01,1.00,2.44,-4.76,-4.94
1777399465842,2102459,0.02,-0.00,1.00,2.38,-4.70,-5.00
1777399465842,2102469,0.02,-0.01,1.00,2.32,-4.70,-5.19
1777399465842,2102479,0.01,-0.01,1.00,2.38,-4.76,-4.94
1777399465842,2102489,0.01,-0.01,1.00,2.50,-4.76,-4.76
1777399465842,2102499,0.02,-0.00,1.00,2.38,-4.76,-4.94
1777399465842,2102509,0.02,-0.00,1.00,2.26,-4.70,-5.31
1777399465842,2102519,0.04,-0.03,1.01,2.08,-5.07,-5.25
1777399465842,2102529,0.29,-0.08,0.94,0.31,-7.93,-7.63
1777399465842,2102539,0.05,0.02,1.00,0.98,-7.51,-11.84
1777399465842,2102549,0.26,-0.04,1.00,1.89,-5.86,-10.56
1777399465843,2102559,0.48,-0.16,0.99,1.83,-6.04,-8.79
1777399465843,2102569,0.06,-0.00,1.01,2.08,-6.47,-20.32
1777399465843,2102579,-0.04,0.05,1.01,2.14,-5.74,-21.73
1777399465843,2102589,0.10,-0.03,0.97,2.01,-6.71,-16.66
1777399465843,2102599,0.17,-0.09,0.98,2.26,-6.16,-16.24
1777399465843,2102609,0.14,-0.07,0.97,2.44,-3.72,-23.07
1777399465843,2102629,-0.00,0.01,1.02,2.56,-4.94,-23.50
1777399465843,2102649,-0.08,0.02,0.98,2.56,-4.82,-21.85
1777399465843,2102669,-0.17,0.03,1.01,2.62,-4.33,-18.98
1777399465843,2102689,-0.22,0.02,1.02,2.50,-4.88,-13.67
1777399465843,2102699,-0.19,0.03,0.98,2.14,-5.31,-10.25
1777399465844,2102709,-0.16,0.06,1.02,2.20,-4.39,-7.87
1777399465844,2102719,0.01,-0.01,1.00,2.20,-5.25,-5.31
1777399465844,2102729,0.02,-0.01,1.00,2.20,-5.62,-4.94
1777399465844,2102739,0.02,0.00,1.00,2.50,-5.49,-4.58
1777399465844,2102749,0.04,0.00,0.99,2.44,-5.37,-4.09
1777399465844,2102759,0.03,-0.03,1.01,2.32,-5.13,-2.01
1777399465844,2102769,0.01,-0.06,0.98,2.32,-5.55,0.85
1777399465844,2102779,0.02,-0.05,0.99,2.56,-4.64,-0.79
1777399465844,2102789,0.02,-0.03,0.99,2.44,-3.97,-1.77
1777399465844,2102799,0.00,-0.04,0.99,2.50,-3.54,-0.73
1777399465845,2102809,0.00,-0.03,1.00,2.50,-3.17,0.73
1777399465845,2102819,0.01,0.01,1.01,2.44,-3.72,0.85
1777399465845,2102829,0.01,-0.00,1.00,2.81,-4.88,1.16
1777399465845,2102839,0.01,0.00,0.99,2.44,-5.00,2.93
1777399465845,2102849,0.00,0.01,1.01,2.32,-4.52,0.49
1777399465845,2102859,0.02,-0.01,0.99,2.56,-4.94,1.95
1777399465845,2102869,0.02,0.02,1.01,2.44,-4.27,-0.06
1777399465845,2102879,0.03,0.04,1.00,2.32,-4.64,-1.65
1777399465845,2102889,0.03,0.03,1.01,2.20,-4.88,-2.32
1777399465845,2102899,0.02,0.02,1.00,2.32,-5.19,-2.56
1777399465846,2102909,0.01,0.01,1.00,2.38,-5.07,-3.42
1777399465846,2102919,0.02,-0.01,1.00,2.38,-4.94,-4.39
1777399465846,2102929,0.02,-0.01,1.00,2.32,-4.94,-4.82
1777399465846,2102939,0.02,-0.01,1.00,2.20,-4.94,-5.25
1777399465846,2102949,0.02,-0.00,1.00,2.26,-4.94,-5.07
1777399465846,2102969,0.02,-0.01,1.00,2.20,-5.13,-5.74
1777399465846,2102989,0.07,0.05,1.00,2.44,-5.31,-12.45
1777399465846,2103009,-0.00,-0.02,1.00,2.26,-5.25,-5.13
1777399465846,2103029,0.03,-0.02,1.00,2.50,-5.25,-7.20
1777399465846,2103039,-0.01,0.02,0.99,2.38,-5.07,-8.73
1777399465847,2103049,0.00,-0.01,1.01,2.32,-4.52,-6.47
1777399465847,2103059,-0.00,-0.02,1.00,2.44,-5.00,-5.43
1777399465847,2103069,0.01,-0.01,1.00,2.56,-4.76,-4.82
1777399465847,2103079,0.02,-0.00,1.00,2.44,-4.70,-4.94
1777399465847,2103089,0.02,-0.00,1.00,2.26,-4.70,-5.25
1777399465847,2103099,0.02,-0.01,1.00,2.20,-4.76,-5.13
1777399465847,2103109,0.02,-0.01,1.00,2.38,-4.88,-4.82
1777399465847,2103119,0.02,-0.01,1.00,2.38,-5.00,-4.94
1777399465847,2103129,0.02,-0.01,1.00,2.44,-4.82,-5.00
1777399465847,2103139,0.02,-0.01,1.00,2.38,-4.88,-4.94
1777399465848,2103149,0.02,-0.01,1.01,2.44,-5.13,-5.25
1777399465848,2103159,0.02,-0.00,0.99,2.44,-5.49,-5.49
1777399465848,2103169,0.02,-0.00,1.00,2.50,-5.13,-5.13
1777399465848,2103179,0.03,-0.00,1.00,2.44,-4.82,-5.25
1777399465848,2103189,0.03,-0.01,0.99,2.44,-4.58,-5.49
1777399465848,2103199,0.02,-0.01,1.01,2.44,-4.27,-5.07
1777399465848,2103209,0.01,-0.01,0.99,2.56,-4.33,-4.52
1777399465848,2103219,0.01,-0.01,1.00,2.50,-4.46,-4.46
1777399465848,2103229,0.02,-0.01,0.99,2.62,-3.54,-4.88
1777399465848,2103239,0.02,-0.01,1.00,2.69,-2.93,-5.13
1777399465848,2103249,0.01,0.00,1.00,2.69,-2.93,-5.00
1777399465849,2103259,0.02,-0.00,1.00,2.62,-3.78,-4.27
1777399465849,2103269,0.01,-0.04,1.02,2.69,-3.97,-0.24
1777399465849,2103279,0.01,-0.02,1.00,2.69,-4.03,0.18
1777399465849,2103289,0.02,0.01,1.01,2.81,-4.33,-4.33
1777399465849,2103299,0.02,0.00,1.00,2.69,-4.39,-4.58
1777399465849,2103319,0.02,-0.01,1.00,2.62,-4.33,-4.58
1777399465849,2103339,0.02,-0.00,1.00,2.69,-4.58,-5.00
1777399465849,2103359,0.02,-0.01,1.00,2.38,-4.52,-5.31
1777399465849,2103379,0.00,-0.02,1.01,2.44,-4.52,-5.49
1777399465849,2103389,-0.00,-0.02,1.00,2.56,-4.15,-7.08
1777399465849,2103399,0.03,0.00,1.00,2.75,-3.91,-9.70
1777399465850,2103409,0.03,0.01,1.00,2.75,-4.09,-8.67
1777399465850,2103419,0.02,-0.01,1.00,2.69,-4.39,-5.62
1777399465850,2103429,0.02,-0.01,1.00,2.62,-4.58,-4.64
1777399465850,2103439,0.01,-0.00,1.00,2.50,-4.76,-4.52
1777399465850,2103449,0.02,-0.00,1.00,2.44,-4.76,-4.58
1777399465850,2103459,0.01,-0.00,1.00,2.50,-4.76,-4.52
1777399465850,2103469,0.01,-0.01,1.00,2.50,-4.76,-4.58
1777399465850,2103479,0.02,-0.01,1.01,2.50,-4.76,-4.58
1777399465850,2103489,0.02,-0.01,1.00,2.50,-4.76,-4.88
1777399465850,2103499,0.02,-0.01,1.00,2.38,-4.70,-5.19
1777399465850,2103509,0.02,-0.01,1.00,2.44,-4.76,-5.00
1777399465851,2103519,0.02,-0.00,1.00,2.62,-4.82,-4.58
1777399465851,2103529,0.02,-0.01,1.00,2.56,-4.76,-4.64
1777399465851,2103539,0.01,-0.01,1.00,2.50,-4.82,-4.70
1777399465851,2103549,0.01,-0.01,1.00,2.50,-4.70,-4.58
1777399465851,2103559,0.02,-0.01,1.00,2.50,-4.88,-4.58
1777399465851,2103569,0.02,-0.00,1.00,2.44,-4.82,-4.58
1777399465851,2103579,0.02,-0.00,1.00,2.50,-4.82,-4.52
1777399465851,2103589,0.02,-0.01,1.00,2.50,-4.82,-4.64
1777399465851,2103599,0.02,-0.01,1.00,2.50,-4.70,-4.76
1777399465851,2103609,0.02,-0.01,1.00,2.44,-4.76,-5.00
1777399465852,2103619,0.02,-0.00,1.00,2.38,-4.76,-5.25
1777399465852,2103629,0.02,-0.00,1.00,2.32,-4.70,-5.19
1777399465852,2103639,0.02,-0.00,1.00,2.32,-4.70,-5.13
1777399465852,2103659,0.02,-0.01,1.00,2.44,-4.82,-4.58
1777399465852,2103679,0.02,-0.01,1.00,2.44,-4.70,-4.64
1777399465852,2103699,0.02,-0.01,1.00,2.50,-4.82,-4.70
1777399465852,2103719,0.02,-0.00,1.00,2.50,-4.76,-4.52
1777399465852,2103729,0.02,-0.01,1.00,2.56,-4.70,-4.46
1777399465852,2103739,0.02,-0.01,1.00,2.56,-4.76,-4.58
1777399465852,2103749,0.02,-0.01,1.00,2.50,-4.76,-4.70
1777399465852,2103759,0.02,-0.01,1.00,2.44,-4.76,-4.82
1777399465853,2103769,0.02,-0.01,1.00,2.38,-4.64,-5.07
1777399465853,2103779,0.02,-0.01,1.00,2.50,-4.76,-4.94
1777399465853,2103789,0.02,-0.01,1.00,2.56,-4.70,-4.70
1777399465853,2103799,0.02,-0.01,1.00,2.62,-4.70,-4.70
1777399465853,2103809,0.02,-0.01,1.00,2.50,-4.76,-4.76
1777399465853,2103819,0.01,-0.01,1.00,2.50,-4.76,-4.58
1777399465853,2103829,0.02,-0.00,1.00,2.62,-4.76,-4.52
1777399465853,2103839,0.02,-0.01,1.00,2.62,-4.76,-4.64
1777399465853,2103849,0.02,-0.01,1.00,2.56,-4.70,-4.82
1777399465853,2103859,0.02,-0.01,1.00,2.56,-4.70,-4.64
1777399465854,2103869,0.01,-0.01,1.00,2.62,-4.70,-4.64
1777399465854,2103879,0.02,-0.01,1.00,2.56,-4.76,-4.94
1777399465854,2103889,0.02,-0.01,1.00,2.50,-4.76,-5.13
1777399465854,2103899,0.02,-0.01,1.00,2.50,-4.70,-5.19
1777399465854,2103909,0.02,-0.01,1.00,2.56,-4.70,-5.25
1777399465854,2103919,0.02,-0.01,0.99,2.44,-4.64,-5.25
1777399465854,2103929,0.02,-0.00,1.00,2.44,-4.64,-5.31
1777399465854,2103939,0.01,-0.01,1.00,2.56,-4.70,-5.07
1777399465854,2103949,0.02,-0.00,1.00,2.62,-4.82,-4.70
1777399465854,2103959,0.01,-0.00,1.00,2.56,-4.76,-4.58
1777399465855,2103969,0.02,-0.01,1.00,2.69,-4.70,-4.52
1777399465855,2103979,0.02,-0.01,1.00,2.50,-4.76,-4.64
1777399465855,2103989,0.01,-0.01,1.00,2.44,-4.70,-4.94
1777399465855,2104009,0.02,-0.01,1.00,2.50,-4.82,-4.76
1777399465855,2104029,0.01,-0.00,0.99,2.44,-5.00,-4.58
1777399465855,2104049,0.02,-0.01,1.01,2.38,-4.76,-4.88
1777399465855,2104069,0.02,-0.01,1.01,2.38,-4.70,-5.13
1777399465855,2104079,0.02,-0.01,0.99,2.44,-4.64,-5.13
1777399465855,2104089,0.01,-0.00,1.00,2.56,-4.64,-4.94
1777399465856,2104099,0.01,-0.01,1.01,2.62,-4.76,-4.64
1777399465856,2104109,0.01,-0.01,1.00,2.56,-4.76,-4.76
1777399465856,2104119,0.02,-0.00,1.00,2.62,-4.64,-4.82
1777399465856,2104129,0.01,-0.00,1.00,2.44,-4.76,-4.76
1777399465856,2104139,0.01,-0.00,0.99,2.50,-4.82,-4.88
1777399465856,2104149,0.02,-0.01,1.00,2.50,-4.64,-4.82
1777399465857,2104159,0.02,-0.01,1.01,2.50,-4.70,-4.76
1777399465867,2104169,0.02,-0.01,1.00,2.50,-4.76,-4.94
1777399465877,2104179,0.02,-0.01,1.00,2.44,-4.64,-5.13
1777399465887,2104189,0.02,-0.00,1.00,2.44,-4.70,-5.07
1777399465897,2104199,0.02,-0.01,1.00,2.44,-4.70,-4.94
1777399465907,2104209,0.02,-0.01,1.00,2.50,-4.70,-4.94
1777399465917,2104219,0.02,-0.01,1.00,2.50,-4.76,-4.76
1777399465927,2104229,0.02,-0.00,1.00,2.38,-4.64,-4.94
1777399465937,2104239,0.01,-0.00,0.99,2.38,-4.82,-5.13
1777399465947,2104249,0.02,-0.01,1.00,2.44,-4.70,-4.94
1777399465957,2104259,0.02,-0.01,1.00,2.50,-4.70,-4.70
1777399465967,2104269,0.02,-0.00,1.00,2.38,-4.64,-4.94
1777399465977,2104279,0.02,-0.00,0.99,2.20,-4.70,-5.25
1777399465987,2104289,0.01,-0.00,1.00,2.38,-4.70,-5.07
1777399465997,2104299,0.02,-0.00,0.99,2.38,-4.76,-4.88
1777399466007,2104309,0.01,-0.00,1.00,2.44,-4.76,-4.64
1777399466017,2104319,0.02,-0.01,1.00,2.50,-4.88,-4.52
1777399466027,2104329,0.02,-0.00,1.00,2.44,-4.70,-4.70
1777399466047,2104349,0.02,-0.00,1.00,2.38,-4.82,-4.94
1777399466067,2104369,0.02,-0.01,1.01,2.50,-4.70,-4.58
1777399466087,2104389,0.02,-0.00,0.99,2.62,-4.76,-4.64
1777399466107,2104409,0.02,-0.01,1.00,2.50,-4.70,-4.82
1777399466117,2104419,0.02,-0.01,1.00,2.50,-4.70,-4.82
1777399466127,2104429,0.02,-0.00,1.00,2.56,-4.76,-4.64
1777399466138,2104439,0.01,-0.00,1.00,2.56,-4.76,-4.58
1777399466147,2104449,0.02,-0.00,0.99,2.56,-4.70,-4.58
1777399466157,2104459,0.01,-0.01,1.00,2.56,-4.82,-4.52
1777399466167,2104469,0.02,-0.01,1.00,2.56,-4.82,-4.52
1777399466177,2104479,0.02,-0.01,1.00,2.50,-4.76,-4.58
1777399466187,2104489,0.02,-0.00,1.00,2.44,-4.76,-4.82
1777399466197,2104499,0.02,-0.00,1.00,2.50,-4.76,-4.76
1777399466207,2104509,0.02,-0.00,1.00,2.50,-4.82,-4.64
1777399466217,2104519,0.02,-0.01,0.99,2.44,-4.76,-4.94
1777399466227,2104529,0.02,-0.01,1.00,2.38,-4.76,-5.13
1777399466237,2104539,0.02,-0.01,1.00,2.50,-4.82,-4.88
1777399466247,2104549,0.01,-0.01,0.99,2.56,-4.76,-4.58
1777399466257,2104559,0.02,-0.01,1.00,2.50,-4.76,-4.76
1777399466267,2104569,0.02,-0.01,1.01,2.32,-4.76,-5.19
1777399466277,2104579,0.02,-0.01,1.00,2.32,-4.82,-5.07
1777399466287,2104589,0.02,-0.00,1.00,2.44,-4.76,-5.00
1777399466297,2104599,0.01,-0.00,1.00,2.38,-4.76,-4.94
1777399466307,2104609,0.02,-0.00,1.00,2.44,-4.82,-4.82
1777399466317,2104619,0.02,-0.01,1.00,2.50,-4.70,-4.70
1777399466327,2104629,0.02,-0.01,1.00,2.50,-4.76,-4.58
1777399466339,2104639,0.02,-0.01,1.00,2.38,-4.76,-4.88
1777399466347,2104649,0.02,-0.01,1.00,2.32,-4.64,-5.31
1777399466357,2104659,0.02,-0.00,1.00,2.32,-4.70,-5.19
1777399466367,2104669,0.02,-0.00,1.00,2.38,-4.70,-4.94
1777399466377,2104679,0.02,-0.00,1.00,2.44,-4.76,-5.13
1777399466397,2104699,0.02,-0.00,1.00,2.38,-4.76,-4.82
1777399466417,2104719,0.02,-0.01,1.00,2.38,-4.76,-4.94
1777399466437,2104739,0.02,-0.00,1.00,2.26,-4.76,-5.31
1777399466457,2104759,0.02,-0.00,1.00,2.56,-4.76,-4.64
1777399466467,2104769,0.02,-0.01,1.00,2.50,-4.70,-4.58
1777399466477,2104779,0.01,-0.01,1.00,2.50,-4.82,-4.52
1777399466487,2104789,0.02,-0.01,1.00,2.44,-4.76,-4.70
1777399466497,2104799,0.02,-0.01,1.00,2.32,-4.76,-5.00
1777399466507,2104809,0.02,-0.01,1.00,2.32,-4.70,-5.07
1777399466517,2104819,0.02,-0.01,1.00,2.32,-4.76,-5.13
1777399466527,2104829,0.02,-0.01,1.00,2.32,-4.76,-5.07
1777399466537,2104839,0.02,-0.01,1.00,2.38,-4.70,-4.88
1777399466547,2104849,0.02,-0.00,1.00,2.44,-4.76,-5.07
1777399466557,2104859,0.02,-0.00,1.00,2.32,-4.76,-5.19
1777399466567,2104869,0.01,-0.01,1.00,2.44,-4.82,-4.94
1777399466577,2104879,0.02,-0.01,1.00,2.56,-4.76,-4.64
1777399466587,2104889,0.02,-0.01,1.00,2.44,-4.82,-4.64
1777399466597,2104899,0.02,-0.01,1.00,2.50,-4.82,-4.82
1777399466607,2104909,0.02,-0.01,1.00,2.50,-4.76,-4.88
1777399466617,2104919,0.02,-0.01,1.00,2.38,-4.64,-5.07
1777399466627,2104929,0.02,-0.00,1.00,2.38,-4.70,-4.94
1777399466637,2104939,0.02,-0.00,1.00,2.38,-4.64,-4.94
1777399466647,2104949,0.02,-0.00,1.00,2.32,-4.64,-5.07
1777399466657,2104959,0.02,-0.01,1.00,2.32,-4.70,-5.25
1777399466667,2104969,0.02,-0.01,1.00,2.26,-4.76,-5.13
1777399466677,2104979,0.02,-0.01,1.00,2.38,-4.70,-5.13
1777399466687,2104989,0.02,-0.01,1.00,2.32,-4.76,-5.07
1777399466697,2104999,0.02,-0.01,1.00,2.38,-4.70,-5.07
1777399466707,2105009,0.02,-0.00,1.00,2.38,-4.70,-5.19
1777399466717,2105019,0.02,-0.00,1.00,2.32,-4.82,-5.19
1777399466727,2105029,0.02,-0.00,1.00,2.44,-4.76,-5.07
