host_time_ms,arduino_time_ms,ax,ay,az,gx,gy,gz
1777494671192,119168,-0.4968,0.1298,-0.2728,-58.8379,46.7529,8.1787
1777494671192,119184,-0.5491,0.1001,-0.2799,-65.3687,32.7148,-3.4180
1777494671193,119201,-0.6965,-0.0194,-0.3063,-73.8525,29.6631,1.8921
1777494671193,119218,-0.8213,-0.0332,-0.3014,-71.3501,30.4565,7.9956
1777494671193,119234,-1.0859,-0.0043,-0.3024,-55.0537,29.7241,23.0713
1777494671193,119251,-1.4048,0.0188,-0.2935,-25.0244,27.0996,23.8647
1777494671193,119268,-1.7068,0.0948,-0.2114,12.7563,14.3433,12.5732
1777494671193,119284,-1.8179,0.1118,-0.1521,26.7334,-1.2817,5.9814
1777494671193,119301,-1.9021,0.1475,-0.0406,50.8423,-40.2222,-3.4790
1777494671193,119318,-1.7657,0.2184,0.0668,68.7866,-75.9277,-12.8174
1777494671193,119334,-1.4556,0.2175,0.1121,72.0215,-97.2900,-28.2593
1777494671193,119351,-1.2502,0.1865,0.0911,68.1763,-99.8535,-36.0718
1777494671193,119368,-0.9055,0.1095,0.0388,57.8613,-83.9233,-42.6636
1777494671193,119384,-0.6396,0.0049,-0.0293,48.4009,-55.7251,-35.6445
1777494671193,119401,-0.5189,-0.0319,-0.0493,37.5977,-27.2217,-21.5454
1777494671193,119418,-0.4958,-0.0221,-0.0574,27.7100,-18.1274,-0.9766
1777494671194,119434,-0.4326,-0.0170,-0.1418,-1.6479,-4.6387,8.6060
1777494671194,119451,-0.4830,-0.0366,-0.1869,-21.7896,24.7192,20.8130
1777494671194,119468,-0.6282,-0.0103,-0.1219,-18.5547,44.2505,27.0386
1777494671194,119484,-0.6582,0.0116,-0.1001,-15.5029,41.0156,26.2451
1777494671194,119501,-0.6638,0.0168,-0.1028,-19.5923,29.1748,20.9961
1777494671194,119518,-0.7075,-0.0258,-0.1124,-28.8086,27.9541,21.0571
1777494671194,119534,-0.8512,-0.0576,-0.1028,-32.7148,25.3906,27.8320
1777494671194,119551,-0.9307,-0.0526,-0.0912,-32.2266,21.3623,32.1045
1777494671194,119568,-1.1553,-0.0116,-0.0664,-23.2544,15.3198,31.6772
1777494671194,119584,-1.4036,0.0588,-0.0253,-7.1411,12.0239,30.2124
1777494671194,119601,-1.6360,0.1462,0.0228,5.1880,7.2021,23.7427
1777494671194,119618,-1.7113,0.1903,0.0466,10.0098,-15.2588,8.9111
1777494671194,119634,-1.7173,0.2361,0.0807,19.2261,-22.1558,0.4883
1777494671194,119651,-1.5500,0.2483,0.1050,28.0151,-43.0908,-17.2729
1777494671194,119667,-1.2533,0.1907,0.0928,31.0059,-56.4575,-34.3628
1777494671195,119684,-1.0952,0.1539,0.0780,29.9683,-58.7769,-41.9312
1777494671195,119701,-0.8204,0.0957,0.0371,22.7661,-53.5889,-41.2598
1777494671195,119717,-0.6608,0.0543,0.0134,11.2915,-42.1143,-34.7900
1777494671195,119734,-0.5280,0.0382,-0.0267,-3.6621,-29.2969,-24.2310
1777494671195,119751,-0.4956,0.0391,-0.0474,-12.8174,-11.1084,-7.8125
1777494671195,119767,-0.4471,0.0044,-0.1385,-31.1890,0.3052,2.1973
1777494671195,119784,-0.5023,-0.0287,-0.1996,-41.8091,28.6865,21.6675
1777494671195,119801,-0.6418,-0.0095,-0.1890,-35.9497,45.4712,34.7900
1777494671195,119817,-0.7266,0.0168,-0.1622,-28.7476,46.5088,39.4287
1777494671195,119834,-0.9261,0.1088,-0.0880,-21.1182,36.1938,41.5039
1777494671195,119851,-1.0859,0.1729,-0.0529,-26.4282,16.1133,49.1333
1777494671195,119867,-1.2064,0.2197,-0.0093,-29.2969,5.9204,45.6543
1777494671195,119884,-1.2417,0.2296,0.0034,-29.4800,3.6621,31.0669
1777494671195,119900,-1.2557,0.2329,0.0271,-25.9399,2.0752,24.5361
1777494671195,119917,-1.2145,0.2170,0.0358,-22.5220,-1.2207,16.6016
1777494671196,119934,-1.1406,0.2107,0.0302,-20.8130,-5.1270,9.2163
1777494671196,119950,-1.0918,0.2046,0.0265,-20.1416,-6.4697,5.9204
1777494671196,119967,-0.9707,0.1855,0.0084,-21.1792,-6.2866,-2.1973
1777494671196,119983,-0.8667,0.1555,-0.0153,-24.9634,-4.1504,-6.0425
1777494671196,120000,-0.7947,0.1190,-0.0403,-29.6631,-0.8545,-6.1646
1777494671196,120017,-0.7769,0.1145,-0.0498,-31.3721,0.5493,-4.6997
1777494671196,120033,-0.7528,0.0966,-0.0636,-33.3862,2.1973,0.2441
1777494671196,120050,-0.7744,0.1129,-0.0610,-33.9966,3.9673,5.3101
1777494671196,120066,-0.8170,0.1294,-0.0580,-34.1187,0.6714,10.8643
1777494671196,120083,-0.8438,0.1398,-0.0522,-33.3252,-1.2207,13.3667
1777494671196,120100,-0.8846,0.1663,-0.0482,-31.6772,-4.0894,16.9678
1777494671196,120116,-0.9747,0.2040,-0.0187,-28.3813,-6.4087,22.4609
1777494671196,120133,-1.0432,0.2582,0.0096,-23.4375,-11.1694,26.0620
1777494671196,120150,-1.0640,0.2864,0.0277,-22.6440,-13.4888,23.9868
1777494671197,120166,-1.0604,0.2976,0.0479,-26.7944,-17.9443,17.7002
1777494671197,120183,-1.0229,0.3005,0.0420,-33.3862,-18.9209,12.9395
1777494671197,120200,-0.9781,0.2642,0.0099,-40.2222,-13.3057,12.4512
1777494671197,120216,-0.9602,0.2622,-0.0077,-41.0156,-8.6060,13.9771
1777494671197,120233,-0.9535,0.2732,-0.0310,-38.7573,0.1221,15.6250
1777494671197,120250,-0.9518,0.2850,-0.0532,-37.7808,4.8828,16.1133
1777494671197,120266,-0.9690,0.3157,-0.0710,-35.4614,7.2632,15.8081
1777494671197,120283,-0.9689,0.3159,-0.0800,-33.9966,8.1787,14.9536
1777494671197,120299,-0.9861,0.3260,-0.0973,-29.0527,11.1694,13.1226
1777494671197,120316,-0.9945,0.3281,-0.0989,-21.9727,13.0615,10.4980
1777494671197,120333,-1.0087,0.3510,-0.0870,-16.0522,11.4136,8.0566
1777494671197,120349,-1.0081,0.3597,-0.0841,-14.3433,9.3994,5.3101
1777494671197,120366,-0.9960,0.3522,-0.0732,-11.7798,3.4180,-0.3662
1777494671197,120383,-0.9644,0.3514,-0.0610,-8.8501,-1.7700,-4.4556
1777494671197,120399,-0.9309,0.3508,-0.0463,-6.4087,-2.9907,-6.2866
1777494671198,120416,-0.9229,0.3481,-0.0377,-5.6763,-2.8687,-6.8359
1777494671198,120432,-0.9016,0.3416,-0.0248,-5.1880,-1.8311,-5.7983
1777494671198,120449,-0.8689,0.3395,-0.0227,-4.5166,-0.3662,-3.9673
1777494671198,120465,-0.8677,0.3383,-0.0143,-3.4790,1.2817,-1.2817
1777494671198,120482,-0.8704,0.3459,-0.0081,-3.1128,1.1597,-0.1221
1777494671198,120498,-0.8940,0.3392,0.0052,-4.7607,-0.8545,1.2207
1777494671198,120515,-0.8892,0.3508,0.0046,-5.7373,-3.2959,2.0142
1777494671198,120531,-0.8901,0.3524,0.0042,-7.0190,-2.3804,3.2959
1777494671198,120548,-0.9097,0.3527,-0.0021,-6.9580,-1.5259,4.1504
1777494671198,120565,-0.9410,0.3700,-0.0145,-6.2256,1.1597,4.0283
1777494671198,120581,-0.9794,0.3700,-0.0397,-4.4556,2.9297,1.0986
1777494671198,120598,-0.9872,0.3698,-0.0533,-1.2207,3.6621,-1.8311
1777494671198,120614,-1.0022,0.3729,-0.0868,0.3052,3.5400,-2.5635
1777494671198,120631,-1.0198,0.3821,-0.1152,5.0049,4.1504,-3.9673
1777494671198,120647,-1.0367,0.3901,-0.1382,12.6343,4.7607,-7.2021
1777494671198,120664,-1.0437,0.3939,-0.1409,16.7847,5.3101,-11.7188
1777494671199,120681,-1.0486,0.3958,-0.1309,25.1465,5.0049,-14.4653
1777494671199,120697,-1.0341,0.3842,-0.1207,30.7617,1.4038,-19.5923
1777494671199,120714,-1.0002,0.3550,-0.1064,34.6680,-3.6011,-22.8271
1777494671199,120731,-0.9805,0.3458,-0.0934,37.2314,-5.3101,-24.4751
1777494671199,120747,-0.9581,0.3221,-0.0610,41.6260,-5.5542,-25.3296
1777494671199,120764,-0.9301,0.3029,-0.0355,43.1519,-6.0425,-26.2451
1777494671199,120780,-0.9083,0.2955,-0.0131,43.9453,-5.2490,-26.4282
1777494671199,120797,-0.8956,0.2919,-0.0054,44.3115,-4.6387,-25.9399
1777494671199,120814,-0.8571,0.2786,0.0070,44.1895,-4.2114,-24.7803
1777494671199,120830,-0.8352,0.2666,0.0192,42.1143,-5.0049,-21.3623
1777494671199,120847,-0.8173,0.2621,0.0310,40.1001,-6.7749,-17.1509
1777494671199,120864,-0.8218,0.2694,0.0417,38.5742,-8.6060,-14.6484
1777494671199,120880,-0.8115,0.2626,0.0326,32.9590,-12.5122,-10.6201
1777494671199,120897,-0.8123,0.2565,0.0151,30.2734,-12.0850,-5.9814
1777494671199,120913,-0.8262,0.2628,-0.0150,28.7476,-10.2539,-0.6104
1777494671200,120930,-0.8352,0.2638,-0.0322,28.4424,-9.5215,2.5024
1777494671200,120947,-0.8656,0.2754,-0.0588,29.1748,-9.4604,6.4087
1777494671200,120964,-0.8789,0.2686,-0.0907,30.7617,-10.4980,7.9346
1777494671200,120980,-0.9127,0.2698,-0.1144,32.7759,-11.5967,11.1694
1777494671200,120997,-0.9192,0.2662,-0.1243,33.2642,-13.3057,13.0005
1777494671200,121013,-0.9261,0.2598,-0.1377,35.7056,-15.8081,13.4277
1777494671200,121030,-0.9528,0.2723,-0.1304,39.6118,-17.2119,14.9536
1777494671200,121047,-0.9801,0.2844,-0.1130,41.5649,-17.9443,15.0757
1777494671200,121063,-0.9882,0.2880,-0.1088,41.3818,-19.4092,14.3433
1777494671200,121080,-0.9874,0.2842,-0.1102,41.0156,-21.7896,13.0615
1777494671200,121097,-0.9783,0.2717,-0.1058,41.6870,-21.3623,11.9629
1777494671201,121113,-0.9786,0.2756,-0.0879,43.9453,-19.4702,12.2070
1777494671201,121130,-0.9806,0.2844,-0.0771,44.6167,-19.2261,11.0474
1777494671201,121147,-0.9735,0.2767,-0.0585,43.0298,-19.2871,10.1929
1777494671201,121163,-0.9657,0.2817,-0.0466,41.5039,-18.8599,8.9111
1777494671201,121180,-0.9446,0.2830,-0.0396,39.0625,-16.5405,8.6670
1777494671201,121197,-0.9448,0.2921,-0.0344,38.1470,-12.2070,10.2539
1777494671201,121213,-0.9353,0.3060,-0.0399,35.9497,-10.1929,9.5825
1777494671201,121230,-0.9261,0.3064,-0.0404,32.3486,-7.8125,7.5073
1777494671201,121247,-0.9086,0.2949,-0.0535,29.1748,-8.1177,7.4463
1777494671202,121263,-0.9005,0.2990,-0.0576,28.0762,-6.7749,8.7891
1777494671202,121280,-0.9089,0.3146,-0.0623,26.8555,-5.8594,9.8267
1777494671202,121296,-0.9137,0.3291,-0.0714,26.3062,-4.0894,9.6436
1777494671202,121313,-0.9226,0.3408,-0.0781,24.7192,-4.6997,8.0566
1777494671202,121330,-0.9177,0.3447,-0.0848,24.0479,-6.1035,6.8970
1777494671202,121346,-0.9095,0.3396,-0.0919,22.0947,-7.6904,6.2256
1777494671202,121363,-0.8988,0.3469,-0.0922,21.8506,-8.4229,5.1880
1777494671202,121379,-0.9010,0.3634,-0.0936,22.2778,-7.9346,5.5542
1777494671202,121396,-0.9069,0.3762,-0.0961,21.9727,-7.5073,5.3711
1777494671202,121413,-0.9172,0.3896,-0.1008,22.1558,-6.2866,4.2725
1777494671202,121429,-0.9188,0.3937,-0.0986,22.3389,-7.3242,3.2959
1777494671202,121446,-0.9087,0.3876,-0.1010,21.7285,-10.4370,3.1738
1777494671202,121463,-0.9006,0.3896,-0.1068,21.9727,-11.0474,2.8687
1777494671202,121479,-0.8872,0.3939,-0.1097,23.5596,-9.2163,3.7842
1777494671202,121496,-0.8893,0.3949,-0.1117,24.3530,-6.1035,4.3335
1777494671202,121513,-0.8875,0.3899,-0.1205,23.8037,-5.7983,3.4790
1777494671203,121529,-0.8966,0.3889,-0.1240,23.7427,-6.5918,2.3804
1777494671203,121546,-0.8928,0.3859,-0.1377,25.0244,-8.4229,1.4648
1777494671203,121563,-0.8911,0.3751,-0.1288,27.3438,-9.7046,0.6714
1777494671203,121579,-0.8925,0.4128,-0.1097,28.0151,-11.1694,0.6104
1777494671203,121596,-0.9006,0.4186,-0.1045,26.7944,-11.8408,-0.1221
1777494671203,121612,-0.9012,0.4374,-0.0995,24.1089,-12.5732,-1.5869
1777494671203,121629,-0.8884,0.4362,-0.1158,20.9961,-11.1084,-2.8687
1777494671203,121646,-0.8826,0.4100,-0.1495,18.4326,-7.0801,-2.5635
1777494671203,121662,-0.8708,0.4186,-0.1639,18.4937,-4.6997,-2.6855
1777494671203,121679,-0.8661,0.3834,-0.1848,20.0195,0.1831,0.6714
1777494671203,121696,-0.8680,0.3829,-0.1914,19.8364,2.5024,1.9531
1777494671203,121712,-0.8789,0.3761,-0.1942,16.2354,-0.3662,2.0142
1777494671203,121729,-0.8801,0.3657,-0.1953,14.0381,-3.4790,1.4648
1777494671204,121745,-0.8802,0.3481,-0.1989,10.3760,-9.7656,-0.3662
1777494671204,121762,-0.8636,0.3317,-0.1925,9.3994,-11.7798,-2.0142
1777494671204,121779,-0.8693,0.3309,-0.1757,8.4229,-9.2773,-2.9297
1777494671204,121795,-0.8710,0.3346,-0.1674,7.4463,-7.8735,-3.2959
1777494671204,121812,-0.8693,0.3303,-0.1605,5.1880,-6.6528,-4.5166
1777494671204,121828,-0.8884,0.3417,-0.1467,2.9297,-6.7749,-5.6152
1777494671204,121845,-0.9008,0.3763,-0.1315,1.2207,-8.3618,-6.1035
1777494671204,121861,-0.8937,0.3889,-0.1272,-0.6104,-8.6670,-7.2632
1777494671204,121878,-0.8905,0.4006,-0.1218,-4.5776,-7.5073,-9.5215
1777494671204,121895,-0.8740,0.4021,-0.1307,-8.3618,-4.0894,-11.2305
1777494671204,121911,-0.8666,0.4058,-0.1350,-10.4980,-0.5493,-9.2773
1777494671204,121928,-0.8762,0.4167,-0.1281,-11.2305,1.7700,-8.3008
1777494671204,121944,-0.8778,0.4329,-0.1249,-12.8784,3.4180,-6.4697
1777494671204,121961,-0.8915,0.4619,-0.1227,-13.7329,5.3101,-3.6011
1777494671204,121978,-0.9307,0.4819,-0.1260,-13.3057,7.8735,-0.9155
1777494671205,121994,-0.9142,0.4813,-0.1365,-12.5732,8.8501,0.1221
1777494671205,122011,-0.9198,0.4944,-0.1559,-10.0098,12.0850,1.2207
1777494671205,122027,-0.9451,0.4873,-0.1564,-5.8594,16.3574,2.2583
1777494671205,122044,-0.9462,0.4880,-0.1703,-4.4556,13.7329,2.9907
1777494671205,122061,-0.9265,0.4534,-0.1797,-5.0659,10.4980,1.9531
1777494671205,122077,-0.8705,0.4078,-0.2043,-3.1738,1.1597,-1.9531
1777494671205,122094,-0.8213,0.3685,-0.2003,3.9673,-5.3101,-6.0425
1777494671205,122110,-0.8005,0.3483,-0.1853,9.2773,-10.1929,-5.7983
1777494671205,122127,-0.7827,0.3173,-0.1517,9.6436,-12.6953,-4.6387
1777494671205,122144,-0.7896,0.3038,-0.1199,8.8501,-15.6250,-1.8311
1777494671205,122161,-0.8381,0.3070,-0.0861,8.4839,-17.6392,3.1738
1777494671205,122177,-0.8549,0.3569,-0.0474,9.2163,-18.9209,6.7139
1777494671205,122194,-0.8949,0.3663,-0.0322,8.1787,-19.2261,6.7139
1777494671205,122210,-0.9272,0.4052,-0.0013,5.1880,-19.7754,9.0332
1777494671205,122227,-0.9351,0.4285,0.0138,2.0752,-20.5078,11.8408
1777494671206,122244,-0.9255,0.4379,0.0133,-2.3804,-16.9067,10.2539
1777494671206,122260,-0.9053,0.4265,0.0024,-4.8828,-12.8784,8.6060
1777494671206,122277,-0.8867,0.4174,-0.0193,-10.6812,-2.6855,5.8594
1777494671206,122293,-0.8917,0.4054,-0.0615,-14.8926,4.5776,5.4932
1777494671206,122310,-0.8981,0.4108,-0.0798,-13.4277,7.7515,7.1411
1777494671206,122327,-0.9076,0.4409,-0.1028,-11.9629,7.5684,8.2397
1777494671206,122343,-0.9086,0.4708,-0.1211,-7.4463,7.0801,7.9956
1777494671206,122360,-0.9012,0.4835,-0.1187,-2.4414,4.5166,5.1880
1777494671206,122376,-0.8956,0.4878,-0.1113,-1.3428,-3.6621,3.0518
1777494671206,122393,-0.8735,0.4637,-0.1031,-2.1973,-8.8501,2.8687
1777494671206,122409,-0.8108,0.4763,-0.1145,-2.6245,-14.0381,4.0894
1777494671206,122426,-0.7965,0.4608,-0.1210,-1.2207,-9.3384,7.0190
1777494671206,122443,-0.8096,0.4653,-0.1207,0.2441,-5.6152,10.9253
1777494671207,122459,-0.8442,0.4797,-0.1113,3.1128,-1.2207,12.2681
1777494671207,122476,-0.8828,0.4906,-0.0963,2.7466,-4.0283,13.1836
1777494671207,122493,-0.8778,0.4827,-0.0941,2.3804,-8.4839,11.9629
1777494671207,122509,-0.8813,0.4839,-0.0913,2.3804,-9.3994,11.1084
1777494671207,122526,-0.8721,0.4797,-0.0819,3.8452,-9.0942,11.6577
1777494671207,122542,-0.8719,0.4883,-0.0768,3.9673,-6.4087,11.0474
1777494671207,122559,-0.8818,0.4899,-0.0774,2.9907,-4.2725,8.9722
1777494671207,122575,-0.8881,0.4946,-0.0820,2.1973,-3.8452,7.9346
1777494671207,122592,-0.8875,0.4912,-0.0964,0.7935,-4.2114,4.5166
1777494671207,122609,-0.8937,0.4930,-0.0939,0.9766,-4.5166,-0.0610
1777494671207,122625,-0.8794,0.4883,-0.0924,1.4648,-6.2866,-4.6997
1777494671207,122642,-0.8745,0.4808,-0.0851,1.1597,-7.0801,-7.2021
1777494671208,122658,-0.8538,0.4659,-0.0751,0.0610,-9.7656,-9.7046
1777494671208,122675,-0.8345,0.4547,-0.0643,0.0610,-10.1929,-10.9253
1777494671208,122691,-0.8293,0.4498,-0.0455,-0.9155,-10.0098,-10.4980
1777494671208,122708,-0.8264,0.4468,-0.0421,-1.8921,-9.7046,-9.8267
1777494671208,122724,-0.8376,0.4569,-0.0272,-3.9673,-8.8501,-8.2397
1777494671208,122741,-0.8616,0.4567,-0.0133,-6.6528,-8.2397,-5.5542
1777494671208,122758,-0.8732,0.4657,-0.0048,-8.7891,-8.0566,-5.2490
1777494671208,122774,-0.8867,0.4663,-0.0037,-10.0708,-7.9346,-5.9204
1777494671208,122791,-0.8878,0.4596,0.0023,-13.0005,-6.7139,-6.8359
1777494671208,122807,-0.8813,0.4547,-0.0067,-15.8691,-4.4556,-7.0190
1777494671208,122824,-0.8834,0.4542,-0.0109,-17.2119,-1.2207,-7.2021
1777494671208,122841,-0.8866,0.4581,-0.0138,-17.5171,-0.3662,-7.4463
1777494671208,130185,-0.8110,0.5222,-0.1377,-15.8691,8.1787,-8.8501
1777494671218,130201,-0.7966,0.5590,-0.1493,-20.2637,10.4980,-12.0850
1777494671235,130218,-0.7728,0.5920,-0.1643,-24.7803,10.6812,-14.4043
1777494671255,130235,-0.7616,0.6029,-0.1804,-29.0527,10.8643,-18.3716
1777494671270,130251,-0.7406,0.6079,-0.2039,-30.1514,11.2915,-20.4468
1777494671286,130268,-0.7167,0.5927,-0.2188,-31.3721,12.0239,-23.4375
1777494671303,130285,-0.7218,0.5989,-0.2288,-30.8228,13.8550,-23.3765
1777494671320,130301,-0.7472,0.5918,-0.2181,-29.6021,14.3433,-22.9492
1777494671337,130318,-0.8091,0.6012,-0.2002,-29.7852,12.4512,-23.9258
1777494671354,130335,-0.8462,0.5691,-0.1921,-31.2500,5.0049,-26.3672
1777494671373,130351,-0.8730,0.5509,-0.1680,-31.3721,-1.2207,-27.4658
1777494671390,130368,-0.8973,0.5499,-0.1462,-27.3438,-5.4321,-22.6440
1777494671405,130385,-0.9601,0.5924,-0.0806,-26.0010,-6.8359,-21.6675
1777494671422,130401,-0.9685,0.6088,-0.0302,-27.7710,-10.4980,-24.4751
1777494671439,130418,-0.8989,0.5549,-0.0183,-31.1890,-11.5356,-31.3721
1777494671457,130435,-0.8411,0.5214,-0.0226,-36.8042,-7.4463,-40.6494
1777494671475,130451,-0.7264,0.4254,-0.0460,-39.4287,-4.8218,-42.4194
1777494671490,130468,-0.6155,0.3545,-0.0775,-41.6260,4.0283,-44.6167
1777494671507,130485,-0.5537,0.3097,-0.1075,-41.1987,13.6108,-44.0674
1777494671524,130501,-0.5492,0.2776,-0.1198,-38.7573,21.4233,-43.8843
1777494671551,130518,-0.5942,0.2300,-0.1312,-36.4990,22.5830,-44.0674
1777494671558,130535,-0.6475,0.1348,-0.1351,-35.8887,17.3340,-48.4619
1777494671577,130551,-0.7062,0.0367,-0.1575,-36.0107,10.2539,-51.5747
1777494671593,130568,-0.7513,-0.0089,-0.1360,-32.8979,11.9019,-46.8750
1777494671613,130585,-0.9564,0.0479,-0.1405,-32.1045,9.0942,-37.2925
1777494671626,130601,-1.3960,0.2168,0.0099,-6.2866,-4.3945,12.1460
1777494671644,130618,-1.5936,0.5883,0.1118,29.0527,-23.3154,36.3770
1777494671661,130635,-1.6432,0.6783,0.2247,35.4004,-37.4756,-1.0376
1777494671680,130651,-1.5813,0.6758,0.2705,27.4048,-51.7578,-19.7144
1777494671695,130668,-1.3398,0.5197,0.2262,-1.9531,-75.5615,-34.6069
1777494671712,130685,-1.1260,0.3375,0.1534,-12.4512,-63.9038,-35.1562
1777494671729,130701,-1.0168,0.2871,0.1001,-7.2632,-31.9214,-33.9355
1777494671746,130718,-0.8945,0.2402,0.0925,-6.1035,-14.1602,-32.4097
1777494671763,130735,-0.8368,0.2198,0.0687,-14.0991,7.3242,-28.7476
1777494671780,130751,-0.7516,0.2075,0.0125,-25.1465,16.9067,-28.1372
1777494671797,130768,-0.7236,0.1960,-0.0184,-34.4238,25.8179,-30.5786
1777494671814,130785,-0.6741,0.1685,-0.0364,-37.6587,28.9307,-30.2124
1777494671835,130801,-0.6520,0.1345,-0.0668,-37.4146,39.3677,-27.3438
1777494671848,130818,-0.6992,0.1530,-0.0699,-32.0435,53.0396,-23.1323
1777494671865,130835,-0.7417,0.1837,-0.0822,-27.4658,62.1338,-18.4937
1777494671882,130851,-0.8773,0.2177,-0.0786,-25.3296,62.6831,-19.7144
1777494671899,130868,-0.9893,0.3156,-0.1042,-18.1885,58.3496,-22.9492
1777494671918,130885,-1.0793,0.3749,-0.1068,-3.6621,55.1147,-23.0713
1777494671933,130901,-1.1564,0.3495,-0.1174,3.6011,43.5791,-24.7803
1777494671950,130918,-1.2024,0.2891,-0.1310,4.0894,33.8135,-24.8413
1777494671967,130935,-1.2632,0.3121,-0.1580,13.6108,14.5264,-19.5312
1777494671984,130951,-1.3394,0.4431,-0.1709,35.2783,-0.8545,2.5024
1777494672001,130968,-1.3478,0.5677,-0.2169,57.4341,-11.7188,19.6533
1777494672018,130985,-1.3066,0.5822,-0.2219,64.3311,-17.9443,21.1182
1777494672035,131001,-1.2278,0.4771,-0.1537,69.0308,-44.6777,14.5874
1777494672057,131018,-1.1190,0.3623,-0.0504,67.7490,-99.6704,16.7236
1777494672069,131035,-0.9741,0.2618,0.0266,66.7114,-141.6626,30.7617
1777494672086,131052,-0.8800,0.2864,0.0795,67.9321,-149.1699,35.2173
1777494672104,131068,-0.6951,0.3580,0.0745,51.1475,-138.8550,41.2598
1777494672121,131085,-0.5880,0.4420,-0.0333,15.5029,-85.9985,42.2974
1777494672138,131102,-0.5730,0.4362,-0.1431,-37.4756,-25.8789,23.9258
1777494672154,131118,-0.5256,0.4097,-0.2141,-60.7300,-4.3335,11.4136
1777494672171,131135,-0.4950,0.2770,-0.2883,-81.2378,24.1699,-10.0098
1777494672189,131152,-0.4403,0.1759,-0.3033,-71.6553,44.3726,-25.3296
1777494672210,131168,-0.4324,0.1498,-0.2756,-62.0117,70.3125,-37.0483
1777494672224,131185,-0.4789,0.1552,-0.2433,-59.8145,83.8623,-39.0625
1777494672240,131202,-0.6879,0.2473,-0.1578,-58.5327,101.5625,-35.4614
1777494672257,131218,-0.9684,0.4220,-0.0497,-61.9507,89.2334,-38.7573
1777494672282,131235,-1.0247,0.4127,-0.1077,-58.1665,58.4106,-67.9932
1777494672291,131252,-1.0071,0.3226,-0.1481,-51.1475,53.5889,-94.6655
1777494672308,131268,-1.0490,0.0869,-0.1798,-36.1328,53.3447,-132.5684
1777494672325,131285,-1.2120,-0.1165,-0.2646,-12.8784,49.1333,-133.9111
1777494672342,131302,-1.3187,-0.1337,-0.2751,37.8418,39.8560,-83.3130
1777494672359,131319,-1.3375,0.0325,-0.2570,70.6787,34.9731,-48.0957
1777494672376,131335,-1.3351,0.2882,-0.2435,132.4463,35.7056,8.0566
1777494672393,131352,-1.1996,0.4784,-0.2047,194.3970,69.0308,-10.4370
1777494672410,131369,-0.9579,0.4004,-0.1163,203.4302,68.2373,-53.3447
1777494672427,131385,-0.8448,0.2993,-0.0850,187.8052,51.3916,-65.0024
1777494672445,131402,-0.6813,0.1827,0.0134,135.0098,-5.9204,-68.1763
1777494672462,131419,-0.4536,0.1384,-0.0021,57.6172,-72.0215,-51.8799
1777494672479,131435,-0.3527,-0.0084,-0.1682,-13.7329,-76.9653,-35.0342
1777494672506,131452,-0.4042,-0.0638,-0.2058,-36.7432,-54.6875,-28.3203
1777494672513,131469,-0.5966,-0.1733,-0.1852,-46.6309,-5.0659,-10.6812
1777494672529,131485,-0.7644,-0.1477,-0.0952,-41.5039,3.4180,1.3428
1777494672546,131502,-0.8353,-0.1349,-0.0873,-55.6641,-12.7563,9.3994
1777494672563,131519,-0.8900,-0.1224,-0.1011,-68.7256,-19.1650,28.3203
1777494672581,131535,-1.0563,-0.1207,-0.1741,-90.6982,-21.4233,32.5317
1777494672598,131552,-1.3069,-0.0568,-0.2393,-85.8154,-1.6479,54.3823
1777494672615,131569,-1.4958,0.0431,-0.2631,-57.7393,31.3721,59.0820
1777494672632,131585,-1.5459,0.0938,-0.2570,-42.4194,43.4570,43.3350
1777494672649,131602,-1.4814,0.1692,-0.2788,-22.0947,43.2129,32.2876
1777494672666,131619,-1.3243,0.1947,-0.2841,-12.0850,20.3857,15.7471
1777494672683,131635,-1.1155,0.1548,-0.2804,-1.2207,-16.6626,2.6245
1777494672700,131652,-1.0251,0.1473,-0.2638,6.2866,-49.7437,-7.0801
1777494672726,131669,-0.8416,0.1292,-0.2086,23.2544,-56.6406,-10.4980
1777494672734,131685,-0.6985,0.1158,-0.1884,36.1938,-61.7065,-12.1460
1777494672751,131702,-0.6508,0.1400,-0.1364,44.9219,-50.2319,-16.4795
1777494672768,131719,-0.6517,0.1426,-0.1060,44.4946,-40.0391,-25.9399
1777494672785,131735,-0.6517,0.1337,-0.0637,28.9917,-38.6353,-29.9683
1777494672802,131752,-0.6508,0.1001,-0.0858,6.0425,-41.9922,-33.3252
1777494672819,131769,-0.6873,0.0302,-0.0991,-11.3525,-42.8467,-30.8228
1777494672836,131785,-0.7313,-0.0132,-0.1031,-16.3574,-40.7104,-23.7427
1777494672853,131802,-0.8337,-0.0480,-0.1332,-16.7847,-37.4756,-16.7236
1777494672870,131819,-1.0283,0.0135,-0.0997,-6.8970,-21.0571,-0.3662
1777494672887,131835,-1.2465,0.0964,-0.0498,0.8545,-7.9346,14.2212
1777494672906,131852,-1.3395,0.1427,-0.0233,2.1362,-9.5215,15.0146
1777494672921,131868,-1.4132,0.1819,-0.0205,-2.5024,-16.9067,11.9019
1777494672948,131885,-1.3669,0.1678,-0.0164,-5.1270,-34.0576,2.3193
1777494672955,131902,-1.1985,0.1614,-0.0359,-2.0752,-41.3818,-0.9766
1777494672972,131918,-1.1202,0.1429,-0.0383,0.3052,-38.3911,-1.8311
1777494672989,131935,-0.9646,0.1072,-0.0541,1.5869,-28.0762,-2.2583
1777494673006,131951,-0.8304,0.0900,-0.0785,-3.3569,-18.0054,-1.0376
1777494673023,131968,-0.7585,0.0651,-0.1046,-13.2446,-10.0708,1.7090
1777494673039,131985,-0.7432,0.0422,-0.1051,-17.2119,-5.9814,3.2959
1777494673056,132001,-0.7120,0.0347,-0.1140,-20.5688,0.1831,6.1646
1777494673073,132018,-0.7333,0.0383,-0.1130,-20.0195,6.2866,7.8125
1777494673090,132035,-0.7607,0.0366,-0.1290,-20.9351,10.4370,7.3242
1777494673107,132051,-0.7834,0.0247,-0.1379,-21.6064,11.7798,5.3711
1777494673125,132068,-0.8717,-0.0039,-0.1348,-21.6675,9.1553,2.6245
1777494673141,132084,-0.9919,-0.0311,-0.1188,-22.3389,-1.1597,1.6479
1777494673162,132101,-1.1274,-0.0015,-0.0905,-20.4468,-14.1602,2.4414
1777494673175,132118,-1.1796,-0.0175,-0.0806,-18.1274,-18.8599,3.6621
1777494673192,132134,-1.3296,0.0557,-0.0195,-5.6763,-21.0571,4.8828
1777494673209,132151,-1.4077,0.1617,0.0494,14.0381,-21.0571,5.7983
1777494673226,132167,-1.3929,0.2346,0.1056,27.4658,-18.5547,-1.7700
1777494673243,132184,-1.3296,0.2552,0.1237,29.2969,-18.3716,-8.0566
1777494673260,132201,-1.1254,0.2281,0.1106,18.6768,-19.3481,-22.0947
1777494673277,132217,-0.8979,0.1328,0.0450,-1.2207,-17.2729,-30.0903
1777494673294,132234,-0.7086,0.0681,-0.0344,-12.9395,-7.6904,-27.5269
1777494673314,132251,-0.6526,0.0557,-0.0649,-15.1978,1.5259,-24.9634
1777494673328,132267,-0.6102,0.0469,-0.0969,-13.6108,23.6206,-15.0146
1777494673345,132284,-0.6650,0.0808,-0.1127,-13.4888,38.8794,-7.3242
1777494673362,132301,-0.7311,0.1005,-0.1262,-21.0571,38.8794,-4.8828
1777494673379,132317,-0.7545,0.1027,-0.1378,-25.3906,33.3862,-5.3711
1777494673396,132334,-0.7930,0.0690,-0.1586,-31.4331,18.0054,-7.8125
1777494673413,132350,-0.8568,0.0249,-0.1827,-27.5879,9.2163,-7.5684
1777494673430,132367,-0.9797,0.0283,-0.1625,-15.7471,7.6294,-2.6245
1777494673447,132384,-1.0524,0.0499,-0.1458,-12.0239,6.6528,0.3662
1777494673465,132400,-1.2543,0.1249,-0.0935,-3.9062,1.1597,11.2915
1777494673482,132417,-1.4193,0.2235,-0.0172,9.4604,-10.0708,16.2354
1777494673498,132434,-1.4596,0.2874,0.0397,16.9067,-28.9307,6.0425
1777494673515,132450,-1.4203,0.2908,0.0494,17.8833,-37.9028,-1.0986
1777494673532,132467,-1.2336,0.2596,0.0455,17.2729,-47.0581,-13.0005
1777494673549,132483,-1.0088,0.2026,0.0148,12.4512,-40.7715,-18.5547
1777494673576,132500,-0.8295,0.1460,-0.0187,4.3335,-26.3672,-17.2119
1777494673583,132517,-0.7637,0.1344,-0.0393,0.4272,-19.0430,-13.5498
1777494673600,132533,-0.6748,0.1226,-0.0880,-6.7139,-5.1880,-7.2632
1777494673617,132550,-0.6376,0.1118,-0.1300,-11.8408,7.3853,0.2441
1777494673634,132566,-0.6476,0.1049,-0.1667,-16.1743,17.6392,7.7515
1777494673651,132583,-0.6636,0.1122,-0.1729,-16.7236,21.2402,10.4980
1777494673668,132600,-0.7037,0.1036,-0.1797,-15.5640,22.1558,11.0474
1777494673685,132617,-0.7531,0.0677,-0.1792,-12.2070,17.2729,4.2725
1777494673702,132633,-0.8480,0.0178,-0.1671,-9.0942,8.9111,1.0986
1777494673719,132650,-0.9124,0.0009,-0.1606,-7.6294,4.5776,1.6479
1777494673736,132666,-1.0515,-0.0038,-0.1395,-4.1504,-1.2817,2.3193
1777494673753,132683,-1.1991,0.0056,-0.1127,0.3662,-6.7139,2.9907
1777494673770,132699,-1.2759,0.0085,-0.0677,7.4463,-16.7236,1.6479
1777494673789,132716,-1.4342,0.0443,-0.0247,12.3291,-24.5361,2.9297
1777494673804,132732,-1.5037,0.1608,0.0586,28.1982,-41.7480,5.0659
1777494673821,132749,-1.4409,0.2408,0.1139,38.9404,-53.0396,-0.7324
1777494673838,132766,-1.2352,0.2535,0.1407,38.1470,-56.8237,-18.3716
1777494673855,132783,-1.0961,0.2230,0.1310,30.5176,-57.9224,-28.0762
1777494673872,132800,-0.8185,0.1223,0.0865,10.2539,-52.3682,-37.4146
1777494673889,132816,-0.6239,0.0645,0.0382,-2.9907,-36.1938,-32.9590
1777494673906,132833,-0.5576,0.0743,0.0144,-13.4277,-14.9536,-22.2778
1777494673931,132849,-0.5558,0.0758,-0.0028,-20.4468,-5.2490,-15.9912
1777494673940,132866,-0.5861,0.0778,-0.0447,-34.6680,10.4980,-6.8970
1777494673957,132883,-0.6880,0.0635,-0.0674,-44.7998,18.7988,-4.1504
1777494673974,132899,-0.7698,0.0266,-0.0891,-45.8984,13.6719,-6.1646
1777494673991,132916,-0.8064,-0.0199,-0.1133,-45.2271,9.8877,-7.3242
1777494674010,132933,-0.9589,-0.1162,-0.1289,-41.1377,9.3384,-8.5449
1777494674025,132949,-1.2289,-0.0767,-0.0846,-35.0952,3.9062,2.8687
1777494674042,132966,-1.3961,0.0619,-0.0028,-7.2632,-11.0474,38.3301
1777494674059,132982,-1.5393,0.1827,0.0271,11.4746,-16.6626,41.6870
1777494674077,132999,-1.5212,0.3236,0.1136,39.1235,-21.9116,11.7188
1777494674093,133016,-1.3073,0.2981,0.1539,34.7290,-41.2598,-21.1792
1777494674110,133032,-1.0090,0.1910,0.1077,18.9209,-58.2886,-32.9590
1777494674128,133049,-0.8958,0.1455,0.0793,14.0381,-59.0820,-34.1187
1777494674144,133066,-0.7202,0.0621,0.0679,13.4888,-45.3491,-31.5552
1777494674161,133082,-0.6584,0.0579,0.0995,13.7329,-29.3579,-27.4048
1777494674178,133099,-0.6315,0.0767,0.1176,0.6104,-23.3154,-24.8413
1777494674195,133116,-0.6204,0.0732,0.1096,-10.9253,-21.7285,-21.1792
1777494674212,133132,-0.6527,0.0693,0.0618,-35.8887,-15.5029,-10.9863
1777494674230,133149,-0.7146,0.0066,-0.0176,-47.8516,-1.8921,-3.6621
1777494674246,133166,-0.7972,-0.0840,-0.0863,-40.6494,16.0522,-3.6011
1777494674263,133182,-0.8826,-0.1235,-0.1019,-34.1797,26.1230,-4.2725
1777494674281,133199,-1.0537,-0.0953,-0.0905,-20.6299,40.2222,4.0283
1777494674297,133216,-1.3625,0.0209,-0.0057,-4.8828,35.2783,28.5034
1777494674314,133232,-1.4745,0.1880,0.0679,17.2729,10.8032,38.6963
1777494674331,133249,-1.5837,0.2549,0.1226,26.1841,-5.1880,28.6255
1777494674348,133265,-1.4290,0.2804,0.1857,27.0386,-43.0908,3.4790
1777494674365,133282,-1.1700,0.2157,0.1910,17.4561,-70.6177,-8.1177
1777494674382,133299,-1.0378,0.1580,0.1749,12.6953,-70.6177,-5.8594
1777494674399,133315,-0.8221,0.1366,0.1660,11.1084,-62.3779,-3.4790
1777494674416,133332,-0.6868,0.1194,0.1479,5.0049,-40.1001,1.0376
1777494674433,133349,-0.6082,0.0977,0.1167,-5.6152,-19.8364,2.3804
1777494674450,133365,-0.5779,0.0840,0.0762,-17.8833,-3.0518,5.2490
1777494674467,133382,-0.5653,0.0685,0.0516,-22.3999,3.7842,7.5073
1777494674484,133398,-0.5991,0.0321,0.0079,-27.7100,14.3433,11.1084
1777494674501,133415,-0.6628,0.0280,-0.0189,-26.9775,21.0571,11.5356
1777494674518,133432,-0.7111,0.0269,-0.0264,-22.3999,25.1465,10.0708
1777494674535,133448,-0.8070,0.0170,-0.0319,-18.4326,26.4893,7.6904
1777494674552,133465,-0.9801,-0.0010,0.0049,-10.0098,27.2217,-1.8921
1777494674569,133481,-1.1415,-0.0828,0.0421,-9.3994,11.1694,-12.3901
1777494674586,133498,-1.2461,-0.0646,0.0786,-10.4980,-15.0146,-6.7139
1777494674602,133515,-1.5251,-0.0231,0.1726,0.9155,-31.8604,11.4746
1777494674620,133531,-1.5698,0.2250,0.2286,43.7622,-43.4570,27.2827
1777494674637,133548,-1.4612,0.4027,0.3287,74.8901,-41.1987,1.8311
1777494674654,133565,-1.3280,0.4226,0.3464,68.2983,-49.0723,-24.5361
1777494674671,133581,-1.0308,0.3215,0.2996,57.4951,-51.5137,-30.5786
1777494674688,133598,-0.7596,0.2295,0.2090,36.8042,-47.3022,-34.6069
1777494674705,133615,-0.5417,0.0757,0.1166,19.2261,-31.7993,-32.9590
1777494674722,133631,-0.4833,0.0303,0.0914,14.4043,-8.7280,-28.9917
1777494674739,133648,-0.4467,-0.0009,0.0684,12.2681,0.0610,-23.0713
1777494674756,133664,-0.5143,-0.0079,0.0620,4.6997,12.6953,-7.1411
1777494674772,133681,-0.6146,0.0215,0.0585,-7.4463,19.3481,0.1221
1777494674789,133698,-0.6584,0.0288,0.0450,-19.1040,21.3013,2.1362
1777494674806,133714,-0.7506,0.0062,0.0105,-20.6909,23.4985,2.1362
1777494674823,133731,-0.9199,-0.0767,0.0015,-16.1133,27.7710,0.4272
1777494674841,133748,-1.2733,-0.0669,0.0793,-12.2681,25.0244,4.3335
1777494674858,133764,-1.4517,-0.0209,0.1315,10.0098,12.2681,48.5840
1777494674875,133781,-1.5326,0.2445,0.1359,23.2544,14.5264,54.5654
1777494674892,133798,-1.5748,0.4347,0.1720,48.4619,29.7241,35.2173
1777494674909,133814,-1.4329,0.4879,0.2153,53.8330,27.5269,4.3335
1777494674926,133831,-1.3402,0.4526,0.2084,36.9263,6.0425,-9.9487
1777494674945,133848,-1.0725,0.3154,0.1301,24.9023,-7.2021,-16.0522
1777494674960,133864,-0.7860,0.1534,0.0260,6.8970,-20.3247,-28.5034
1777494674977,133881,-0.6296,0.0233,-0.0121,3.6011,-15.6860,-31.8604
1777494674994,133897,-0.6113,0.0028,-0.0135,8.0566,-9.5825,-22.0337
1777494675011,133914,-0.6169,-0.0022,-0.0116,8.5449,-7.1411,-16.6016
1777494675028,133931,-0.6816,0.0015,-0.0045,5.6152,-1.8921,-6.2256
1777494675045,133947,-0.7888,0.0298,-0.0149,-0.3052,5.9204,0.9766
1777494675061,133964,-0.8539,0.0468,-0.0164,-1.2817,11.9629,3.5400
1777494675078,133980,-0.9850,0.0922,-0.0096,0.0000,13.5498,4.2114
1777494675095,133997,-1.1306,0.1493,0.0134,4.1504,11.2915,8.4229
1777494675112,134014,-1.2722,0.1918,0.0588,11.5356,3.3569,7.0190
1777494675129,134030,-1.3290,0.2240,0.0922,16.3574,-2.2583,4.8218
1777494675146,134047,-1.3492,0.2811,0.1412,23.8647,-14.1602,1.2207
1777494675172,134063,-1.2581,0.2815,0.1517,21.4844,-20.6299,-8.6060
1777494675180,134080,-1.0815,0.2262,0.1210,13.4888,-18.0664,-19.3481
1777494675209,134097,-0.9978,0.1848,0.0924,9.2163,-13.1226,-21.4844
1777494675214,134113,-0.8663,0.1195,0.0269,5.9204,0.4272,-18.2495
1777494675231,134130,-0.8030,0.1040,-0.0083,7.2021,12.8784,-12.2070
1777494675248,134146,-0.7827,0.1069,-0.0325,9.1553,20.2637,-7.6904
1777494675265,134163,-0.7900,0.1147,-0.0306,10.6812,21.9116,-6.6528
1777494675282,134180,-0.8088,0.1292,-0.0126,9.8267,18.9209,-4.9438
1777494675299,134196,-0.8221,0.1343,-0.0062,2.8076,9.8267,-2.9297
1777494675316,134213,-0.8389,0.1160,-0.0142,-2.0142,6.2866,-1.0986
1777494675333,134229,-0.8536,0.0999,-0.0176,-2.1362,7.6294,-0.6714
1777494675350,134246,-0.8917,0.0637,-0.0128,-0.0610,12.3901,0.4272
1777494675366,134262,-0.9596,0.0397,-0.0026,1.5869,13.4888,4.2114
1777494675388,134279,-1.0457,0.0487,0.0166,3.9062,9.7046,6.8970
1777494675402,134296,-1.1122,0.0819,0.0387,4.5776,6.0425,7.6294
1777494675417,134312,-1.2529,0.1799,0.0966,8.6670,-5.3711,16.4795
1777494675434,134329,-1.2791,0.2699,0.1160,13.3057,-14.0991,16.6016
1777494675451,134345,-1.2178,0.2999,0.1069,14.4043,-11.5356,-0.6104
1777494675476,134362,-1.1296,0.2777,0.0913,13.1836,-7.6904,-10.1318
1777494675485,134379,-0.9764,0.2058,0.0297,9.2773,-0.6714,-18.4937
1777494675502,134395,-0.8489,0.1473,-0.0316,6.8359,5.1880,-23.6206
1777494675519,134412,-0.7969,0.0996,-0.0702,8.9722,9.0942,-23.1323
1777494675536,134428,-0.7354,0.0936,-0.0795,10.9863,9.8877,-22.1558
1777494675553,134445,-0.7120,0.0830,-0.0811,12.3901,7.3853,-21.4233
1777494675572,134462,-0.7360,0.0712,-0.0676,9.1553,-1.8311,-19.1040
1777494675587,134478,-0.7372,0.0635,-0.0726,4.2725,-11.2915,-17.3950
1777494675613,134495,-0.7657,0.0312,-0.0728,3.6621,-12.5732,-16.4795
1777494675621,134512,-0.8420,0.0057,-0.0460,7.5073,-10.1929,-13.2446
1777494675638,134528,-0.9374,0.0007,-0.0117,9.8877,-9.1553,-6.2256
1777494675655,134545,-1.0024,0.0267,0.0038,10.2539,-10.1929,8.6670
1777494675674,134561,-1.2257,0.1705,0.0759,13.4888,-11.9629,20.9961
1777494675689,134578,-1.3479,0.3240,0.1063,21.7896,-17.1509,31.9824
1777494675706,134595,-1.2881,0.3813,0.1171,20.6299,-18.7378,8.9722
1777494675723,134611,-1.1827,0.3420,0.1011,8.2397,-20.2637,-8.2397
1777494675740,134628,-0.9517,0.2153,0.0259,2.3193,-19.5923,-10.4980
1777494675757,134644,-0.7791,0.1241,-0.0328,-3.4180,-11.9629,-12.6953
1777494675773,134661,-0.6924,0.0483,-0.0601,0.2441,-3.4180,-7.8125
1777494675790,134678,-0.6842,0.0428,-0.0594,5.0049,0.9766,-1.7700
1777494675807,134694,-0.6926,0.0410,-0.0516,4.7607,-0.0610,-0.5493
1777494675836,134711,-0.7450,0.0391,-0.0415,0.9766,-3.9673,-0.9766
1777494675841,134727,-0.8362,0.0475,-0.0225,0.0000,-8.3618,-0.6104
1777494675858,134744,-0.8820,0.0563,-0.0140,-0.7324,-11.2915,-0.6104
1777494675875,134760,-0.9663,0.0612,-0.0046,-2.6855,-13.3667,-2.1973
1777494675892,134777,-1.0771,0.0562,0.0138,1.8921,-10.4980,-3.1128
1777494675909,134793,-1.2303,0.1179,0.0677,7.7515,-12.0239,4.3335
1777494675926,134810,-1.3201,0.1814,0.1049,11.1694,-15.1367,11.0474
1777494675943,134827,-1.4283,0.3196,0.1570,16.7236,-25.0854,18.3716
1777494675960,134843,-1.3756,0.3877,0.1660,15.8081,-29.9072,3.7842
1777494675977,134860,-1.1694,0.3391,0.1346,6.7749,-27.9541,-13.0005
1777494675994,134877,-1.0316,0.2797,0.0846,-1.4038,-23.5596,-17.5781
1777494676011,134893,-0.8058,0.1539,-0.0281,-13.9771,-6.2866,-17.5781
1777494676029,134910,-0.6818,0.0680,-0.0953,-15.8081,17.0898,-13.4277
1777494676045,134926,-0.6631,0.0270,-0.1140,-10.4370,33.0200,-6.2866
1777494676062,134943,-0.6841,0.0189,-0.1095,-7.9346,34.1187,-2.6855
1777494676079,134960,-0.7518,0.0221,-0.0687,-7.2021,22.0947,2.3193
1777494676096,134976,-0.8048,0.0458,-0.0432,-15.6860,-3.1738,8.5449
1777494676113,134993,-0.8650,0.0601,-0.0344,-24.8413,-16.2964,10.1929
1777494676130,135010,-0.9056,0.0627,-0.0276,-25.8179,-18.4937,10.2539
1777494676147,135026,-1.0093,0.0712,-0.0044,-23.0713,-20.5688,11.2915
1777494676164,135043,-1.2029,0.1327,0.0627,-18.1274,-26.9165,17.0288
1777494676181,135060,-1.3964,0.2804,0.1455,-6.2256,-40.5273,30.3955
1777494676198,135076,-1.4462,0.3555,0.1804,-0.3052,-46.6309,29.4189
