host_time_ms,arduino_time_ms,ax,ay,az,gx,gy,gz
1777399774383,2407255,0.01,-0.00,1.00,2.38,-4.76,-4.58
1777399774384,2407265,0.01,-0.00,1.00,2.56,-4.70,-4.15
1777399774384,2407275,0.01,-0.00,1.00,2.62,-4.70,-4.27
1777399774384,2407285,0.01,-0.00,1.00,2.69,-4.70,-4.09
1777399774384,2407295,0.01,-0.00,1.00,2.56,-4.64,-4.21
1777399774385,2407305,0.01,-0.00,1.00,2.50,-4.76,-4.52
1777399774385,2407315,0.01,-0.00,1.00,2.38,-4.58,-4.76
1777399774385,2407325,0.01,-0.00,1.00,2.32,-4.64,-4.94
1777399774386,2407335,0.01,-0.00,1.00,2.44,-4.58,-4.76
1777399774386,2407345,0.01,-0.00,1.00,2.44,-4.64,-4.64
1777399774386,2407355,0.01,-0.00,1.00,2.50,-4.64,-4.58
1777399774386,2407365,0.01,-0.00,1.00,2.50,-4.70,-4.82
1777399774386,2407385,0.01,-0.00,1.00,2.38,-4.76,-4.70
1777399774387,2407405,0.01,-0.00,1.00,2.38,-4.70,-4.64
1777399774387,2407425,0.01,-0.00,1.00,2.32,-4.64,-4.88
1777399774387,2407445,0.01,-0.00,1.00,2.44,-4.64,-4.76
1777399774388,2407455,0.01,-0.00,0.99,2.32,-4.70,-5.00
1777399774388,2407465,0.01,-0.00,1.00,2.32,-4.76,-4.82
1777399774388,2407475,0.01,-0.01,1.00,2.50,-4.76,-4.58
1777399774388,2407485,0.01,-0.00,1.00,2.50,-4.76,-4.58
1777399774389,2407495,0.01,-0.00,1.00,2.50,-4.82,-4.39
1777399774389,2407505,0.01,-0.01,1.00,2.44,-4.82,-4.58
1777399774389,2407515,0.01,-0.00,1.00,2.32,-4.82,-4.88
1777399774389,2407525,0.01,-0.00,1.00,2.56,-4.82,-4.52
1777399774390,2407535,0.01,-0.00,1.00,2.62,-4.76,-4.09
1777399774390,2407545,0.01,-0.00,1.00,2.50,-4.70,-4.46
1777399774390,2407555,0.01,-0.00,1.00,2.38,-4.64,-4.76
1777399774390,2407565,0.01,-0.00,1.00,2.50,-4.70,-4.46
1777399774391,2407575,0.01,-0.00,1.00,2.69,-4.76,-4.09
1777399774391,2407585,0.01,-0.01,1.00,2.56,-4.76,-4.03
1777399774391,2407595,0.01,-0.01,1.00,2.69,-4.82,-4.09
1777399774391,2407605,0.01,-0.01,1.00,2.69,-4.76,-4.21
1777399774391,2407615,0.01,-0.00,1.00,2.62,-4.64,-4.15
1777399774392,2407625,0.01,-0.00,1.00,2.50,-4.64,-4.46
1777399774392,2407635,0.01,-0.00,1.00,2.26,-4.64,-4.94
1777399774392,2407645,0.01,-0.00,1.00,2.26,-4.64,-4.88
1777399774393,2407655,0.01,-0.00,1.00,2.38,-4.70,-4.70
1777399774393,2407665,0.01,-0.00,1.00,2.56,-4.64,-4.52
1777399774393,2407675,0.01,-0.00,1.00,2.62,-4.76,-4.15
1777399774393,2407685,0.01,-0.00,1.00,2.44,-4.70,-4.64
1777399774393,2407695,0.01,-0.00,1.00,2.32,-4.76,-5.13
1777399774394,2407705,0.01,-0.00,1.00,2.32,-4.70,-5.19
1777399774394,2407725,0.01,-0.00,1.00,2.50,-4.76,-4.64
1777399774394,2407745,0.01,-0.00,1.00,2.26,-4.58,-5.00
1777399774394,2407765,0.01,-0.01,1.00,2.56,-4.76,-4.03
1777399774395,2407785,0.01,-0.00,1.00,2.32,-4.64,-5.19
1777399774395,2407795,0.01,-0.00,1.00,2.32,-4.70,-4.94
1777399774395,2407805,0.01,-0.00,1.00,2.38,-4.76,-4.82
1777399774395,2407815,0.01,-0.00,1.00,2.26,-4.70,-4.94
1777399774395,2407825,0.01,-0.00,1.00,2.20,-4.64,-5.13
1777399774396,2407835,0.01,-0.00,1.00,2.20,-4.64,-5.13
1777399774396,2407845,0.01,-0.00,1.00,2.32,-4.58,-5.19
1777399774396,2407855,0.01,-0.00,1.00,2.26,-4.58,-5.13
1777399774396,2407865,0.01,-0.00,1.00,2.26,-4.64,-5.19
1777399774396,2407875,0.01,-0.00,1.00,2.32,-4.70,-5.13
1777399774397,2407885,0.01,-0.00,1.00,2.26,-4.70,-5.13
1777399774397,2407895,0.01,-0.00,1.00,2.26,-4.64,-5.07
1777399774397,2407905,0.01,-0.00,1.00,2.32,-4.64,-4.88
1777399774397,2407915,0.01,-0.00,1.00,2.38,-4.76,-4.88
1777399774397,2407925,0.01,-0.00,1.00,2.38,-4.76,-4.88
1777399774397,2407935,0.01,-0.00,1.00,2.32,-4.76,-4.94
1777399774398,2407945,0.01,-0.00,1.00,2.32,-4.76,-5.00
1777399774398,2407955,0.01,-0.00,1.00,2.32,-4.76,-4.82
1777399774398,2407965,0.01,-0.00,1.00,2.44,-4.70,-4.64
1777399774398,2407975,0.01,-0.00,1.00,2.50,-4.70,-4.46
1777399774398,2407985,0.01,-0.00,1.00,2.62,-4.82,-4.27
1777399774399,2407995,0.01,-0.00,1.00,2.44,-4.70,-4.52
1777399774399,2408005,0.01,-0.00,1.00,2.38,-4.70,-4.82
1777399774399,2408015,0.01,-0.00,1.00,2.32,-4.70,-4.88
1777399774399,2408025,0.01,-0.00,1.00,2.20,-4.70,-5.07
1777399774399,2408035,0.01,-0.00,1.00,2.20,-4.64,-5.07
1777399774400,2408045,0.01,-0.00,1.00,2.32,-4.64,-5.07
1777399774400,2408055,0.01,-0.00,1.00,2.32,-4.64,-4.21
1777399774400,2408075,0.01,-0.00,1.00,2.44,-4.76,-4.82
1777399774400,2408095,0.01,-0.00,1.00,2.44,-4.64,-4.33
1777399774400,2408115,0.01,-0.00,1.00,2.38,-4.76,-4.70
1777399774400,2408135,0.01,-0.00,1.00,2.50,-4.70,-4.39
1777399774401,2408145,0.01,-0.00,1.00,2.38,-4.70,-4.64
1777399774401,2408155,0.01,-0.00,1.00,2.32,-4.76,-4.94
1777399774401,2408165,0.01,-0.00,1.00,2.32,-4.70,-5.07
1777399774401,2408175,0.01,-0.00,1.00,2.32,-4.70,-5.00
1777399774401,2408185,0.01,-0.00,1.00,2.26,-4.70,-5.00
1777399774402,2408195,0.01,-0.00,1.00,2.26,-4.70,-5.07
1777399774402,2408205,0.01,-0.00,1.00,2.32,-4.70,-5.00
1777399774402,2408215,0.01,-0.00,1.00,2.32,-4.70,-5.07
1777399774402,2408225,0.01,-0.00,1.00,2.44,-4.76,-4.70
1777399774402,2408235,0.01,-0.00,1.00,2.50,-4.70,-4.33
1777399774403,2408245,0.01,-0.00,1.00,2.50,-4.70,-4.27
1777399774403,2408255,0.01,-0.00,1.00,2.56,-4.64,-4.21
1777399774403,2408265,0.01,-0.00,1.00,2.62,-4.64,-4.21
1777399774403,2408275,0.01,-0.00,1.00,2.69,-4.64,-4.09
1777399774403,2408285,0.01,-0.00,1.00,2.56,-4.76,-4.09
1777399774404,2408295,0.01,-0.00,1.00,2.62,-4.70,-4.09
1777399774404,2408305,0.01,-0.00,1.00,2.62,-4.76,-4.09
1777399774404,2408315,0.01,-0.00,1.00,2.56,-4.76,-4.21
1777399774404,2408325,0.01,-0.00,1.00,2.44,-4.76,-4.70
1777399774404,2408335,0.01,-0.00,1.00,2.20,-4.70,-5.19
1777399774405,2408345,0.01,-0.00,1.00,2.26,-4.64,-5.13
1777399774405,2408355,0.01,-0.00,1.00,2.26,-4.70,-5.07
1777399774405,2408365,0.01,-0.00,1.00,2.20,-4.70,-5.13
1777399774405,2408375,0.01,-0.00,1.00,2.26,-4.64,-5.19
1777399774405,2408385,0.01,-0.00,1.00,2.32,-4.70,-4.94
1777399774405,2408395,0.01,-0.00,1.00,2.32,-4.58,-4.82
1777399774406,2408415,0.01,-0.00,1.00,2.38,-4.64,-4.82
1777399774406,2408435,0.01,-0.00,1.00,2.44,-4.64,-4.64
1777399774406,2408455,0.01,-0.00,1.00,2.50,-4.76,-4.52
1777399774406,2408475,0.01,-0.00,1.00,2.44,-4.64,-4.52
1777399774406,2408485,0.01,-0.00,1.00,2.56,-4.64,-4.27
1777399774407,2408495,0.01,-0.00,1.00,2.44,-4.70,-4.58
1777399774407,2408505,0.01,-0.00,1.00,2.32,-4.64,-4.76
1777399774407,2408515,0.01,-0.00,1.00,2.44,-4.70,-4.76
1777399774407,2408525,0.01,-0.00,1.00,2.44,-4.76,-4.64
1777399774407,2408535,0.01,-0.00,1.00,2.56,-4.76,-4.58
1777399774407,2408545,0.01,-0.00,1.00,2.56,-4.76,-4.21
1777399774408,2408555,0.01,-0.00,0.99,2.50,-4.82,-4.46
1777399774408,2408565,0.01,-0.00,1.00,2.38,-4.64,-4.58
1777399774408,2408575,0.01,-0.00,1.00,2.56,-4.64,-4.39
1777399774408,2408585,0.01,-0.00,1.00,2.62,-4.82,-4.09
1777399774408,2408595,0.01,-0.00,1.00,2.44,-4.70,-4.52
1777399774408,2408605,0.01,-0.00,1.00,2.26,-4.70,-5.19
1777399774409,2408615,0.01,-0.01,1.00,2.38,-4.70,-4.88
1777399774409,2408625,0.01,-0.00,1.00,2.44,-4.70,-4.64
1777399774409,2408635,0.01,-0.00,1.00,2.56,-4.70,-4.39
1777399774409,2408645,0.01,-0.00,0.99,2.62,-4.70,-4.21
1777399774409,2408655,0.01,-0.00,1.01,2.62,-4.76,-4.33
1777399774409,2408665,0.01,-0.01,1.00,2.56,-4.70,-4.33
1777399774410,2408675,0.01,-0.00,1.00,2.50,-4.70,-4.76
1777399774410,2408685,0.01,-0.00,1.00,2.26,-4.64,-5.19
1777399774410,2408695,0.01,-0.00,1.00,2.32,-4.52,-5.13
1777399774410,2408705,0.01,-0.00,1.00,2.32,-4.58,-5.13
1777399774410,2408715,0.01,-0.00,1.01,2.26,-4.58,-5.19
1777399774410,2408725,0.01,-0.00,1.00,2.20,-4.64,-5.13
1777399774411,2408735,0.01,-0.00,1.00,2.44,-4.58,-4.76
1777399774411,2408745,0.01,-0.00,1.00,2.69,-4.70,-4.15
1777399774411,2408765,0.01,-0.00,1.00,2.50,-4.76,-4.27
1777399774411,2408785,0.01,-0.00,1.00,2.50,-4.70,-4.33
1777399774411,2408805,0.01,-0.00,1.00,2.62,-4.76,-4.27
1777399774411,2408825,0.01,-0.00,1.00,2.50,-4.70,-4.46
1777399774412,2408835,0.01,-0.00,1.00,2.44,-4.70,-4.70
1777399774412,2408845,0.01,-0.00,1.00,2.44,-4.58,-4.82
1777399774412,2408855,0.01,-0.00,1.00,2.32,-4.70,-4.82
1777399774412,2408865,0.01,-0.00,1.00,2.26,-4.64,-4.88
1777399774412,2408875,0.01,-0.00,1.00,2.32,-4.70,-5.00
1777399774412,2408885,0.01,-0.00,1.00,2.26,-4.70,-5.07
1777399774413,2408895,0.01,-0.00,1.00,2.26,-4.70,-5.19
1777399774413,2408905,0.01,-0.00,1.00,2.20,-4.64,-5.13
1777399774413,2408915,0.01,-0.00,1.00,2.20,-4.58,-5.07
1777399774413,2408925,0.01,-0.01,1.00,2.32,-4.64,-4.94
1777399774413,2408935,0.01,-0.00,1.00,2.38,-4.70,-4.70
1777399774413,2408945,0.01,-0.00,1.00,2.38,-4.70,-4.82
1777399774413,2408955,0.01,-0.00,1.00,2.38,-4.64,-4.82
1777399774414,2408965,0.01,-0.00,1.00,2.26,-4.64,-5.07
1777399774414,2408975,0.01,-0.00,1.00,2.20,-4.64,-5.19
1777399774414,2408985,0.01,-0.00,1.00,2.38,-4.70,-4.70
1777399774414,2408995,0.01,-0.00,1.00,2.62,-4.76,-4.27
1777399774414,2409005,0.01,-0.00,1.00,2.62,-4.76,-4.15
1777399774414,2409015,0.01,-0.00,1.00,2.62,-4.70,-4.15
1777399774415,2409025,0.01,-0.00,1.00,2.44,-4.64,-4.58
1777399774415,2409035,0.01,-0.00,1.00,2.26,-4.64,-5.13
1777399774415,2409045,0.01,-0.00,1.00,2.38,-4.70,-4.76
1777399774415,2409055,0.01,-0.00,1.00,2.56,-4.76,-4.39
1777399774415,2409065,0.01,-0.00,1.00,2.56,-4.70,-4.33
1777399774415,2409075,0.01,-0.01,1.00,2.62,-4.64,-4.27
1777399774415,2409085,0.01,-0.00,1.00,2.56,-4.64,-4.21
1777399774416,2409105,0.01,-0.00,1.00,2.38,-4.70,-4.70
1777399774416,2409125,0.01,-0.00,1.00,2.32,-4.70,-4.94
1777399774416,2409145,0.01,-0.00,1.00,2.14,-4.76,-5.07
1777399774416,2409165,0.01,-0.00,1.00,2.50,-4.70,-4.70
1777399774416,2409175,0.01,-0.00,1.00,2.50,-4.76,-4.46
1777399774416,2409185,0.01,-0.00,1.00,2.56,-4.70,-4.21
1777399774416,2409195,0.01,-0.00,1.00,2.62,-4.76,-4.15
1777399774417,2409205,0.01,-0.00,1.00,2.62,-4.76,-4.27
1777399774417,2409215,0.01,-0.01,1.00,2.56,-4.70,-4.33
1777399774417,2409225,0.01,-0.00,1.00,2.69,-4.64,-4.09
1777399774417,2409235,0.01,-0.00,1.00,2.56,-4.82,-4.09
1777399774417,2409245,0.01,-0.00,1.00,2.56,-4.76,-4.21
1777399774417,2409255,0.01,-0.00,1.00,2.50,-4.70,-4.15
1777399774417,2409265,0.01,-0.00,1.00,2.56,-4.70,-4.21
1777399774418,2409275,0.01,-0.00,1.00,2.62,-4.76,-4.15
1777399774418,2409285,0.01,-0.00,1.00,2.56,-4.82,-4.21
1777399774418,2409295,0.01,-0.00,1.00,2.69,-4.76,-4.21
1777399774418,2409305,0.01,-0.00,1.00,2.69,-4.76,-4.09
1777399774418,2409315,0.01,-0.00,1.00,2.56,-4.76,-4.33
1777399774418,2409325,0.01,-0.00,1.00,2.56,-4.64,-4.46
1777399774418,2409335,0.01,-0.00,1.00,2.50,-4.70,-4.58
1777399774419,2409345,0.01,-0.00,1.00,2.44,-4.64,-4.70
1777399774419,2409355,0.01,-0.00,1.00,2.56,-4.70,-4.46
1777399774419,2409365,0.01,-0.00,1.00,2.62,-4.76,-4.15
1777399774419,2409375,0.01,-0.00,1.00,2.56,-4.82,-4.27
1777399774419,2409385,0.01,-0.00,1.00,2.50,-4.70,-4.33
1777399774419,2409395,0.01,-0.00,1.00,2.38,-4.76,-4.64
1777399774420,2409405,0.01,-0.00,1.00,2.26,-4.64,-5.13
1777399774420,2409415,0.01,-0.00,1.00,2.26,-4.70,-5.00
1777399774420,2409425,0.01,-0.00,1.00,2.38,-4.82,-4.82
1777399774420,2409435,0.01,-0.00,1.00,2.44,-4.82,-4.52
1777399774420,2409455,0.01,-0.00,1.00,2.38,-4.82,-4.64
1777399774420,2409475,0.01,-0.00,1.01,2.44,-4.82,-4.64
1777399774420,2409495,0.01,-0.00,1.00,2.44,-4.70,-4.39
1777399774420,2409515,0.01,-0.01,1.00,2.56,-4.76,-4.27
1777399774421,2409525,0.01,-0.00,1.00,2.38,-4.70,-4.64
1777399774421,2409535,0.01,-0.00,1.00,2.26,-4.70,-5.07
1777399774421,2409545,0.01,-0.00,1.00,2.38,-4.70,-5.00
1777399774421,2409555,0.01,-0.00,0.99,2.38,-4.64,-4.76
1777399774421,2409565,0.01,-0.01,1.01,2.38,-4.76,-4.76
1777399774421,2409575,0.01,-0.00,1.00,2.44,-4.76,-4.82
1777399774421,2409585,0.01,-0.00,1.00,2.50,-4.76,-4.76
1777399774422,2409595,0.01,-0.00,0.99,2.50,-4.70,-4.76
1777399774422,2409605,0.01,-0.00,1.00,2.44,-4.76,-4.76
1777399774422,2409615,0.01,-0.00,1.00,2.38,-4.64,-4.64
1777399774422,2409625,0.01,-0.01,1.00,2.32,-4.76,-4.64
1777399774422,2409635,0.01,-0.00,1.00,2.44,-4.70,-4.70
1777399774422,2409645,0.01,-0.00,1.00,2.44,-4.82,-4.52
1777399774422,2409655,0.01,-0.00,1.00,2.56,-4.88,-4.46
1777399774423,2409665,0.01,-0.00,1.00,2.50,-4.70,-4.52
1777399774423,2409675,0.01,-0.01,1.00,2.50,-4.76,-4.64
1777399774423,2409685,0.01,-0.00,1.00,2.44,-4.76,-4.70
1777399774423,2409695,0.01,-0.00,1.00,2.38,-4.64,-4.76
1777399774423,2409705,0.01,-0.00,0.99,2.44,-4.76,-4.70
1777399774423,2409715,0.02,-0.00,1.00,2.38,-4.82,-4.58
1777399774424,2409725,0.01,-0.01,1.01,2.50,-4.64,-4.39
1777399774424,2409735,0.01,-0.00,1.00,2.56,-4.76,-4.21
1777399774424,2409745,0.01,-0.00,1.00,2.62,-4.76,-4.27
1777399774424,2409755,0.01,-0.00,1.00,2.56,-4.70,-4.46
1777399774424,2409765,0.01,-0.00,1.00,2.44,-4.70,-4.52
1777399774424,2409775,0.01,-0.00,1.00,2.44,-4.70,-4.64
1777399774424,2409795,0.01,-0.00,1.00,2.50,-4.70,-4.52
1777399774424,2409815,0.01,-0.01,1.00,2.50,-4.76,-4.64
1777399774425,2409835,0.01,-0.00,1.00,2.26,-4.82,-5.13
1777399774425,2409855,0.01,-0.00,1.00,2.38,-4.64,-5.07
1777399774425,2409865,0.01,-0.00,1.00,2.26,-4.58,-5.07
1777399774425,2409875,0.01,-0.00,1.00,2.38,-4.52,-4.94
1777399774425,2409885,0.01,-0.00,1.00,2.50,-4.58,-4.76
1777399774425,2409895,0.01,-0.00,1.00,2.38,-4.52,-4.82
1777399774425,2409905,0.01,-0.00,1.01,2.32,-4.58,-5.13
1777399774426,2409915,0.01,-0.00,1.00,2.26,-4.58,-5.13
1777399774426,2409925,0.01,-0.00,1.02,2.38,-4.52,-5.19
1777399774426,2409935,0.01,-0.00,0.99,2.44,-4.52,-4.94
1777399774426,2409945,0.01,-0.00,0.98,2.44,-4.58,-4.82
1777399774426,2409955,0.01,-0.00,1.00,2.32,-4.70,-5.00
1777399774426,2409965,0.01,-0.00,1.00,2.26,-4.76,-5.07
1777399774426,2409975,0.01,-0.00,1.00,2.32,-4.76,-5.13
1777399774426,2409985,0.01,-0.00,1.00,2.20,-4.64,-5.13
1777399774427,2409995,0.01,-0.00,1.00,2.38,-4.70,-4.88
1777399774427,2410005,0.01,-0.00,1.01,2.44,-4.64,-4.58
1777399774427,2410015,0.01,-0.00,1.00,2.50,-4.70,-4.58
1777399774427,2410025,0.01,-0.00,1.00,2.50,-4.70,-4.64
1777399774427,2410035,0.01,-0.00,1.01,2.50,-4.76,-4.39
1777399774427,2410045,0.01,-0.00,1.00,2.50,-4.76,-4.39
1777399774427,2410055,0.01,-0.00,0.99,2.38,-4.64,-4.64
1777399774428,2410065,0.01,-0.00,1.00,2.26,-4.76,-5.13
1777399774428,2410075,0.01,-0.01,1.00,2.38,-4.76,-4.88
1777399774428,2410085,0.01,-0.00,1.00,2.38,-4.64,-4.70
1777399774428,2410095,0.01,-0.00,1.00,2.38,-4.76,-4.70
1777399774428,2410105,0.01,-0.00,1.00,2.38,-4.70,-4.76
1777399774428,2410115,0.01,-0.00,1.00,2.38,-4.76,-4.70
1777399774428,2410125,0.01,-0.00,1.00,2.44,-4.70,-4.88
1777399774428,2410145,0.01,-0.00,1.00,2.38,-4.76,-4.94
1777399774429,2410165,0.01,-0.00,1.00,2.32,-4.76,-4.82
1777399774429,2410185,0.01,-0.01,1.00,2.32,-4.70,-5.00
1777399774429,2410205,0.01,-0.00,1.00,2.38,-4.64,-4.76
1777399774429,2410215,0.01,-0.00,1.00,2.38,-4.70,-4.70
1777399774429,2410225,0.01,-0.00,1.00,2.44,-4.76,-4.52
1777399774429,2410235,0.01,-0.00,1.00,2.50,-4.70,-4.33
1777399774429,2410245,0.01,-0.00,1.00,2.38,-4.76,-4.70
1777399774429,2410255,0.01,-0.00,1.00,2.14,-4.64,-5.25
1777399774430,2410265,0.01,-0.00,1.00,2.32,-4.70,-4.88
1777399774430,2410275,0.01,-0.00,1.00,2.44,-4.70,-4.39
1777399774430,2410285,0.01,-0.00,1.00,2.44,-4.70,-4.82
1777399774430,2410295,0.01,-0.00,1.00,2.26,-4.64,-5.13
1777399774430,2410305,0.01,-0.00,1.00,2.32,-4.64,-4.70
1777399774430,2410315,0.01,-0.00,1.00,2.69,-4.76,-4.21
1777399774430,2410325,0.01,-0.00,1.00,2.56,-4.76,-4.33
1777399774431,2410335,0.01,-0.00,1.00,2.56,-4.70,-4.39
1777399774431,2410345,0.01,-0.00,1.00,2.44,-4.76,-4.76
1777399774431,2410355,0.01,-0.00,1.00,2.26,-4.70,-5.19
1777399774431,2410365,0.01,-0.00,1.00,2.32,-4.70,-4.82
1777399774431,2410375,0.01,-0.00,1.00,2.56,-4.76,-4.39
1777399774431,2410385,0.01,-0.00,1.00,2.38,-4.70,-4.52
1777399774431,2410395,0.01,-0.00,1.00,2.32,-4.70,-4.70
1777399774432,2410405,0.01,-0.00,1.00,2.32,-4.64,-4.70
1777399774432,2410415,0.01,-0.00,1.00,2.38,-4.70,-4.58
1777399774432,2410425,0.01,-0.01,1.00,2.44,-4.76,-4.39
1777399774432,2410435,0.01,-0.00,1.00,2.62,-4.76,-4.03
1777399774432,2410445,0.01,-0.00,1.00,2.50,-4.70,-4.46
1777399774432,2410455,0.04,0.06,1.01,2.32,-4.64,-5.31
1777399774432,2410465,0.06,0.45,1.02,1.95,-4.27,-28.50
1777399774433,2410475,-0.07,0.02,0.99,0.37,13.73,-20.39
1777399774433,2410495,0.16,-0.52,0.99,3.17,-4.39,-13.31
1777399774433,2410515,-0.09,-0.17,1.01,6.90,1.16,35.71
1777399774433,2410535,-0.34,-0.04,1.13,-38.76,18.31,44.43
1777399774433,2410545,-0.59,-0.23,1.06,-68.24,20.87,55.48
1777399774433,2410555,-0.57,-0.43,1.09,-94.54,21.00,73.67
1777399774433,2410565,-0.67,-0.50,1.08,-128.78,24.78,98.45
1777399774434,2410575,-0.76,-0.45,1.08,-164.37,33.14,132.45
1777399774434,2410585,-0.80,-0.45,0.95,-202.21,39.43,163.76
1777399774434,2410595,-0.55,-0.63,0.87,-208.44,68.48,189.15
1777399774434,2410605,-0.55,-0.71,0.85,-207.76,90.82,194.70
1777399774434,2410615,-0.70,-0.71,1.00,-202.76,101.26,197.14
1777399774434,2410625,-0.81,-0.71,1.26,-203.06,100.10,200.38
1777399774434,2410635,-0.81,-0.70,1.12,-195.50,77.45,208.37
1777399774435,2410645,-0.82,-0.83,1.00,-186.58,62.13,220.52
1777399774435,2410655,-0.75,-1.01,1.07,-190.00,60.24,222.96
1777399774435,2410665,-0.73,-1.15,1.15,-161.62,67.81,226.93
1777399774435,2410675,-0.74,-1.19,1.37,-120.12,69.52,225.34
1777399774435,2410685,-0.63,-1.05,1.28,-75.20,46.20,209.72
1777399774435,2410695,-0.54,-0.88,1.11,-31.37,30.58,192.99
1777399774435,2410705,-0.53,-0.70,1.02,-0.24,32.47,184.94
1777399774436,2410715,-0.60,-0.44,0.93,18.07,46.94,183.72
1777399774436,2410725,-0.71,-0.03,0.73,19.35,69.21,181.34
1777399774436,2410735,-0.70,0.37,0.68,-5.31,89.60,175.60
1777399774436,2410745,-0.63,0.70,0.51,-47.36,92.35,173.22
1777399774436,2410755,-0.50,0.59,0.53,-112.79,76.11,189.58
1777399774436,2410765,0.01,-0.15,1.05,-165.77,55.11,218.44
1777399774436,2410775,0.25,-0.57,0.88,-136.35,57.01,221.37
1777399774437,2410785,0.03,-0.60,0.52,-86.24,79.83,190.25
1777399774437,2410795,-0.20,-0.55,0.44,-74.04,97.35,155.21
1777399774437,2410805,-0.19,-0.57,0.50,-74.22,99.06,123.84
1777399774437,2410815,-0.16,-0.52,0.53,-57.43,98.27,65.25
1777399774437,2410835,-0.54,-0.11,0.58,-48.46,81.79,38.82
1777399774437,2410855,-0.60,0.09,0.55,-121.89,75.74,84.66
1777399774437,2410875,-0.12,-0.71,0.92,-141.78,77.94,120.24
1777399774438,2410895,-0.50,-0.56,0.49,-44.86,82.28,66.89
1777399774438,2410905,-0.48,-0.61,0.47,-46.14,72.75,30.70
1777399774438,2410915,-0.32,-0.62,0.41,-64.39,60.79,-0.92
1777399774438,2410925,-0.10,-0.33,0.03,-91.98,81.97,-34.97
1777399774438,2410935,-0.79,-0.37,0.89,-131.35,160.58,-49.32
1777399774438,2410945,-0.82,-0.11,1.22,-121.52,119.20,-52.43
1777399774438,2410955,-0.65,-0.63,0.82,-106.32,78.19,-16.42
1777399774438,2410965,-0.65,-0.51,0.63,-38.39,129.94,23.74
1777399774439,2410975,-0.82,-0.63,0.57,-67.93,132.51,33.57
1777399774439,2410985,-0.90,-0.99,0.70,-112.06,99.18,18.31
1777399774439,2410995,-0.83,-0.87,0.77,-95.21,60.42,-19.78
1777399774439,2411005,-0.69,-0.79,0.61,-62.38,24.54,-53.89
1777399774439,2411015,-0.68,-0.53,0.70,-25.27,-7.69,-69.89
1777399774439,2411025,-0.68,-0.44,0.78,-1.53,-46.57,-64.39
1777399774439,2411035,-0.61,-0.28,0.69,14.71,-81.54,-54.75
1777399774440,2411045,-0.66,-0.29,0.72,13.61,-109.99,-47.73
1777399774440,2411055,-0.57,-0.34,0.72,-3.23,-138.55,-41.75
1777399774440,2411065,-0.64,-0.34,0.57,-17.15,-166.63,-31.92
1777399774440,2411075,-0.67,-0.34,0.18,-37.35,-172.12,-32.04
1777399774440,2411085,-0.53,-0.60,0.09,-65.19,-131.90,-35.10
1777399774440,2411095,-1.11,-0.46,0.18,-70.74,-68.30,-39.73
1777399774440,2411105,-0.81,-0.53,0.57,-38.09,3.78,-41.26
1777399774440,2411115,-0.58,-0.47,0.58,-14.04,48.77,-39.79
1777399774441,2411125,-0.69,-0.34,0.58,-5.37,81.48,-27.40
1777399774441,2411135,-0.85,-0.31,0.63,-11.47,90.58,-4.27
1777399774441,2411145,-0.76,-0.27,0.65,-11.78,73.79,7.26
1777399774441,2411155,-0.51,-0.09,0.57,-9.52,51.64,8.61
1777399774441,2411165,-0.21,-0.65,0.38,-34.73,-5.92,-43.52
1777399774441,2411185,-0.48,-0.36,0.22,-72.75,-19.53,-69.15
1777399774441,2411205,-0.88,-0.85,0.17,3.36,-43.27,-25.21
1777399774441,2411225,-0.74,-0.63,0.36,10.19,-8.24,-45.35
1777399774442,2411235,-0.82,-0.67,0.40,14.34,-14.22,-58.90
1777399774442,2411245,-0.80,-0.68,0.41,16.17,-22.34,-71.66
1777399774442,2411255,-0.81,-0.62,0.49,12.70,-27.59,-80.87
1777399774442,2411265,-1.17,-0.24,0.22,-12.94,-37.23,-91.00
1777399774442,2411275,-0.93,-0.12,0.28,-60.67,-37.48,-81.12
1777399774442,2411285,-0.72,-0.64,0.30,-92.41,-31.07,-61.83
1777399774442,2411295,-0.55,-0.87,0.24,-72.33,-22.09,-50.90
1777399774443,2411305,-0.61,-0.89,0.22,-23.56,-10.19,-49.93
1777399774443,2411315,-0.77,-0.72,0.36,19.78,3.54,-48.40
1777399774443,2411325,-0.79,-0.68,0.53,37.60,8.73,-46.14
1777399774443,2411335,-0.76,-0.67,0.68,27.71,6.84,-47.12
1777399774443,2411345,-0.71,-0.66,0.67,3.78,-0.06,-50.11
1777399774443,2411355,-0.66,-0.60,0.61,-19.96,-3.05,-49.99
1777399774443,2411365,-0.61,-0.56,0.50,-37.17,3.36,-49.01
1777399774443,2411375,-0.66,-0.38,0.85,-52.98,13.24,-48.03
1777399774444,2411385,-0.51,-0.42,0.11,-73.55,15.69,-42.66
1777399774444,2411395,-0.68,-0.63,0.42,-81.24,45.47,-34.91
1777399774444,2411405,-0.67,-0.75,0.33,-95.21,60.67,-38.94
1777399774444,2411415,-0.63,-0.70,0.46,-103.39,70.86,-48.10
1777399774444,2411425,-0.49,-0.62,0.50,-101.87,74.95,-43.09
1777399774444,2411435,-0.47,-0.53,0.55,-105.53,74.65,-27.53
1777399774444,2411445,-0.46,-0.64,0.40,-112.67,68.42,-4.94
1777399774444,2411455,-0.52,-0.79,0.30,-126.16,61.83,12.39
1777399774445,2411465,-0.50,-0.80,0.37,-136.17,54.26,18.62
1777399774445,2411475,-0.40,-0.68,0.17,-131.90,45.23,24.66
1777399774445,2411485,-0.48,-0.61,0.17,-122.80,39.18,37.17
1777399774445,2411495,-0.58,-0.53,0.03,-117.98,33.51,42.36
1777399774445,2411505,-0.70,-0.60,0.00,-135.44,32.65,40.83
1777399774445,2411525,-0.62,-0.85,-0.10,-134.28,44.74,12.21
1777399774445,2411545,-0.60,-0.77,-0.21,-107.79,44.19,12.51
1777399774445,2411565,-0.61,-0.82,-0.23,-91.55,34.00,14.59
1777399774446,2411585,-0.60,-0.70,-0.27,-68.73,24.35,0.79
1777399774446,2411595,-0.66,-0.60,-0.07,-85.88,34.48,-5.74
1777399774446,2411605,-0.66,-0.75,-0.18,-105.77,46.57,-4.58
1777399774446,2411615,-0.69,-0.73,-0.20,-107.24,31.80,-9.46
1777399774446,2411625,-0.64,-0.80,-0.27,-107.48,26.49,-14.53
1777399774446,2411635,-0.62,-0.78,-0.34,-94.79,22.03,-18.86
1777399774446,2411645,-0.61,-0.74,-0.38,-82.95,23.38,-22.22
1777399774447,2411655,-0.60,-0.74,-0.42,-69.15,29.11,-20.32
1777399774447,2411665,-0.60,-0.73,-0.42,-53.71,35.10,-18.49
1777399774447,2411675,-0.60,-0.71,-0.38,-39.12,39.73,-15.44
1777399774447,2411685,-0.63,-0.70,-0.31,-30.40,39.31,-12.88
1777399774447,2411695,-0.62,-0.70,-0.28,-26.18,32.41,-7.32
1777399774447,2411705,-0.63,-0.64,-0.26,-27.89,22.40,-5.25
1777399774447,2411715,-0.62,-0.67,-0.25,-36.25,10.31,-2.93
1777399774447,2411725,-0.63,-0.64,-0.28,-42.66,-3.85,1.40
1777399774448,2411735,-0.60,-0.66,-0.35,-46.94,-16.11,3.91
1777399774448,2411745,-0.60,-0.66,-0.40,-46.14,-21.24,3.66
1777399774448,2411755,-0.62,-0.65,-0.49,-38.70,-17.64,-1.53
1777399774448,2411765,-0.52,-0.69,-0.52,-24.96,-5.74,-7.32
1777399774448,2411775,-0.59,-0.61,-0.42,-9.46,7.26,-13.61
1777399774448,2411785,-0.54,-0.64,-0.43,2.20,13.06,-10.86
1777399774448,2411795,-0.53,-0.60,-0.39,3.97,12.51,-8.48
1777399774448,2411805,-0.67,-0.66,-0.34,5.25,9.46,-5.07
1777399774449,2411815,-0.59,-0.64,-0.30,2.14,0.85,-7.39
1777399774449,2411825,-0.47,-0.48,-0.26,-3.66,-10.74,-5.68
1777399774449,2411835,-0.79,-0.62,-0.32,-4.52,-25.21,12.02
1777399774449,2411845,-0.63,-0.64,-0.43,-5.98,-36.13,11.84
1777399774449,2411855,-0.52,-0.63,-0.37,-14.04,-29.91,6.96
1777399774449,2411875,-0.56,-0.53,-0.38,-6.90,-12.39,14.53
1777399774449,2411895,-0.66,-0.63,-0.29,-6.35,2.56,14.47
1777399774449,2411915,-0.70,-0.65,-0.33,-15.50,-11.60,10.25
1777399774450,2411935,-0.72,-0.65,-0.38,-11.23,-14.53,3.54
1777399774450,2411945,-0.74,-0.58,-0.33,-6.04,-13.00,4.15
1777399774450,2411955,-0.75,-0.61,-0.31,-7.69,-10.93,6.35
1777399774450,2411965,-0.76,-0.67,-0.33,-8.48,-11.35,8.30
1777399774450,2411975,-0.75,-0.65,-0.34,-4.94,-13.85,7.69
1777399774450,2411985,-0.72,-0.67,-0.35,-2.81,-16.30,6.71
1777399774450,2411995,-0.69,-0.63,-0.34,-3.23,-15.44,4.82
1777399774451,2412005,-0.68,-0.63,-0.33,-7.51,-12.51,5.68
1777399774451,2412015,-0.67,-0.63,-0.33,-14.22,-9.64,6.90
1777399774451,2412025,-0.67,-0.64,-0.35,-18.55,-7.63,8.48
1777399774451,2412035,-0.68,-0.66,-0.37,-19.65,-5.13,9.28
1777399774451,2412045,-0.68,-0.66,-0.39,-15.08,-1.34,8.97
1777399774451,2412055,-0.68,-0.66,-0.39,-8.97,2.26,6.35
1777399774451,2412065,-0.68,-0.63,-0.38,-3.72,6.10,4.70
1777399774451,2412075,-0.69,-0.62,-0.36,-1.53,7.75,3.42
1777399774451,2412085,-0.71,-0.60,-0.34,-0.43,6.84,4.70
1777399774452,2412095,-0.71,-0.62,-0.33,-1.53,4.27,3.36
1777399774452,2412105,-0.71,-0.62,-0.34,-3.30,1.53,0.79
1777399774452,2412115,-0.71,-0.58,-0.30,-3.66,-1.04,-0.37
1777399774452,2412125,-0.70,-0.58,-0.32,-8.73,-5.74,-1.04
1777399774452,2412135,-0.68,-0.63,-0.35,-14.40,-8.54,-1.10
1777399774452,2412145,-0.68,-0.62,-0.36,-15.32,-8.24,-1.65
1777399774452,2412155,-0.69,-0.62,-0.37,-14.22,-8.30,-2.56
1777399774452,2412165,-0.67,-0.63,-0.39,-11.72,-8.61,-4.88
1777399774453,2412175,-0.67,-0.57,-0.38,-8.54,-7.87,-5.00
1777399774453,2412185,-0.66,-0.58,-0.39,-7.57,-9.34,-3.05
1777399774453,2412195,-0.68,-0.58,-0.40,-6.77,-8.91,-0.24
1777399774453,2412215,-0.69,-0.55,-0.38,-5.25,-3.30,1.28
1777399774453,2412235,-0.72,-0.58,-0.39,-7.08,-5.92,-2.87
1777399774453,2412255,-0.71,-0.57,-0.38,-2.20,-10.50,-10.74
1777399774453,2412275,-0.66,-0.55,-0.39,-2.44,-13.67,-10.86
1777399774453,2412285,-0.67,-0.56,-0.41,-3.97,-10.74,-7.20
1777399774454,2412295,-0.68,-0.58,-0.42,-3.42,-6.04,-3.36
1777399774454,2412305,-0.71,-0.57,-0.40,-0.61,-0.85,-0.73
1777399774454,2412315,-0.71,-0.57,-0.39,0.98,1.89,-0.55
1777399774454,2412325,-0.71,-0.58,-0.38,1.10,2.62,-1.34
1777399774454,2412335,-0.72,-0.57,-0.36,1.40,1.83,-2.38
1777399774454,2412345,-0.73,-0.57,-0.35,0.79,-1.77,-3.17
1777399774454,2412355,-0.72,-0.57,-0.36,-1.89,-6.10,-4.33
1777399774454,2412365,-0.71,-0.58,-0.37,-4.33,-8.61,-5.55
1777399774455,2412375,-0.71,-0.58,-0.37,-5.62,-9.52,-6.04
1777399774455,2412385,-0.70,-0.58,-0.39,-6.16,-8.67,-5.19
1777399774455,2412395,-0.69,-0.58,-0.40,-5.74,-5.92,-3.78
1777399774455,2412405,-0.69,-0.58,-0.40,-5.13,-2.50,-2.44
1777399774455,2412415,-0.69,-0.57,-0.41,-3.91,0.92,-1.28
1777399774455,2412425,-0.70,-0.58,-0.42,-2.50,3.91,-0.31
1777399774455,2412435,-0.70,-0.58,-0.43,0.06,7.32,-0.73
1777399774455,2412445,-0.69,-0.59,-0.42,2.69,9.28,-1.65
1777399774455,2412455,-0.71,-0.58,-0.41,5.00,8.67,-1.65
1777399774456,2412465,-0.69,-0.58,-0.39,5.37,6.41,-2.32
1777399774456,2412475,-0.69,-0.58,-0.38,4.52,2.81,-3.54
1777399774456,2412485,-0.70,-0.57,-0.37,2.50,-2.14,-3.91
1777399774456,2412495,-0.68,-0.57,-0.38,-0.37,-6.10,-3.66
1777399774456,2412505,-0.68,-0.57,-0.39,-3.42,-7.26,-3.11
1777399774456,2412515,-0.69,-0.57,-0.40,-5.80,-6.53,-2.50
1777399774456,2412525,-0.70,-0.57,-0.40,-6.53,-3.97,-2.32
1777399774456,2412535,-0.71,-0.57,-0.40,-6.77,-1.34,-2.81
1777399774456,2412545,-0.72,-0.58,-0.41,-6.23,0.49,-4.82
1777399774457,2412565,-0.71,-0.58,-0.41,-1.71,2.62,-6.23
1777399774457,2412585,-0.70,-0.58,-0.39,-3.78,-1.46,-7.39
1777399774457,2412605,-0.67,-0.57,-0.40,-6.23,-7.45,-5.74
1777399774457,2412625,-0.67,-0.57,-0.42,-7.57,-6.16,-3.36
1777399774457,2412635,-0.69,-0.58,-0.42,-5.86,-3.78,-3.11
1777399774457,2412645,-0.69,-0.57,-0.42,-3.60,-2.08,-3.60
1777399774457,2412655,-0.70,-0.57,-0.42,-1.83,-1.28,-4.70
1777399774457,2412665,-0.71,-0.55,-0.41,-0.73,-1.16,-6.04
1777399774458,2412675,-0.70,-0.54,-0.40,-1.22,-1.59,-5.80
1777399774458,2412685,-0.70,-0.54,-0.42,-3.23,-1.89,-4.76
1777399774458,2412695,-0.71,-0.55,-0.43,-4.46,-0.85,-3.72
1777399774458,2412705,-0.71,-0.55,-0.44,-4.27,0.73,-2.81
1777399774458,2412715,-0.71,-0.55,-0.43,-3.42,2.20,-2.50
1777399774458,2412725,-0.71,-0.55,-0.42,-3.11,2.75,-2.75
1777399774458,2412735,-0.71,-0.55,-0.44,-2.75,2.50,-3.78
1777399774458,2412745,-0.70,-0.55,-0.43,-1.53,1.77,-5.19
1777399774458,2412755,-0.70,-0.55,-0.43,-0.18,0.24,-5.62
1777399774461,2412765,-0.69,-0.55,-0.45,0.49,-0.98,-5.13
1777399774471,2412775,-0.69,-0.55,-0.46,1.77,-0.12,-4.52
1777399774481,2412785,-0.68,-0.56,-0.44,3.48,2.08,-3.66
1777399774491,2412795,-0.68,-0.56,-0.43,3.30,3.48,-2.93
1777399774501,2412805,-0.68,-0.56,-0.42,1.89,4.03,-2.14
1777399774511,2412815,-0.68,-0.57,-0.41,0.31,4.33,-2.01
1777399774521,2412825,-0.68,-0.57,-0.41,-0.55,4.39,-2.75
1777399774531,2412835,-0.68,-0.57,-0.40,-1.65,4.21,-4.03
1777399774541,2412845,-0.67,-0.57,-0.42,-2.32,3.36,-5.13
1777399774551,2412855,-0.66,-0.57,-0.43,-1.40,2.81,-5.80
1777399774561,2412865,-0.65,-0.58,-0.44,1.40,2.08,-5.74
1777399774571,2412875,-0.64,-0.58,-0.45,4.76,1.10,-5.49
1777399774581,2412885,-0.63,-0.59,-0.46,8.30,0.24,-4.64
1777399774601,2412905,-0.64,-0.58,-0.42,12.70,-3.85,-2.26
1777399774621,2412925,-0.64,-0.58,-0.41,7.93,-3.36,-3.48
1777399774641,2412945,-0.66,-0.58,-0.43,3.97,1.71,-3.85
1777399774661,2412965,-0.68,-0.60,-0.43,8.79,6.59,-1.22
1777399774671,2412975,-0.70,-0.59,-0.40,12.08,6.23,-0.73
1777399774681,2412985,-0.71,-0.59,-0.38,11.66,4.09,-2.26
1777399774691,2412995,-0.70,-0.60,-0.38,7.63,0.31,-4.52
1777399774701,2413005,-0.69,-0.61,-0.40,3.91,-3.48,-6.29
1777399774711,2413015,-0.67,-0.61,-0.41,3.30,-5.98,-6.53
1777399774721,2413025,-0.67,-0.61,-0.41,4.21,-6.77,-4.88
1777399774731,2413035,-0.67,-0.60,-0.40,4.27,-6.16,-2.87
1777399774741,2413045,-0.67,-0.60,-0.41,2.62,-4.64,-1.77
1777399774751,2413055,-0.68,-0.60,-0.43,0.79,-1.59,-2.50
1777399774761,2413065,-0.68,-0.61,-0.45,0.85,2.56,-4.15
1777399774771,2413075,-0.68,-0.61,-0.45,3.23,6.53,-4.46
1777399774781,2413085,-0.69,-0.61,-0.44,5.43,9.52,-3.60
1777399774791,2413095,-0.70,-0.60,-0.44,6.35,10.25,-3.23
1777399774801,2413105,-0.71,-0.59,-0.44,5.98,10.07,-3.60
1777399774811,2413115,-0.71,-0.58,-0.43,4.21,9.77,-4.76
1777399774821,2413125,-0.70,-0.59,-0.44,1.22,9.34,-5.80
1777399774831,2413135,-0.70,-0.59,-0.44,-0.31,8.12,-5.98
1777399774841,2413145,-0.70,-0.59,-0.44,-0.18,5.80,-5.80
1777399774851,2413155,-0.69,-0.59,-0.46,0.85,2.56,-5.49
1777399774861,2413165,-0.68,-0.59,-0.48,3.91,0.55,-5.19
1777399774871,2413175,-0.66,-0.57,-0.50,8.97,0.79,-4.70
1777399774881,2413185,-0.66,-0.57,-0.50,14.40,3.36,-3.48
1777399774891,2413195,-0.66,-0.56,-0.50,19.29,6.90,-2.93
1777399774901,2413205,-0.66,-0.56,-0.49,22.52,11.17,-4.58
1777399774911,2413215,-0.66,-0.55,-0.46,24.72,15.08,-6.29
1777399774921,2413225,-0.65,-0.54,-0.42,24.23,16.11,-6.59
1777399774931,2413235,-0.65,-0.53,-0.40,18.37,12.70,-6.29
1777399774951,2413255,-0.64,-0.55,-0.42,1.46,-2.69,-5.00
1777399774971,2413275,-0.64,-0.57,-0.47,0.79,-7.69,-2.44
1777399774991,2413295,-0.63,-0.57,-0.51,5.19,-4.52,-0.79
1777399775011,2413315,-0.68,-0.57,-0.49,13.61,1.71,-1.16
1777399775021,2413325,-0.68,-0.56,-0.48,14.83,-0.49,-4.27
1777399775031,2413335,-0.63,-0.56,-0.47,15.63,-2.62,-3.78
1777399775041,2413345,-0.66,-0.56,-0.44,12.94,-0.12,0.00
1777399775051,2413355,-0.68,-0.55,-0.43,6.41,-0.37,2.99
1777399775061,2413365,-0.66,-0.55,-0.45,0.92,-2.20,4.09
1777399775071,2413375,-0.66,-0.55,-0.45,-1.83,-2.26,5.00
1777399775081,2413385,-0.67,-0.55,-0.45,-2.99,-1.65,6.29
1777399775091,2413395,-0.65,-0.55,-0.48,-3.78,-0.43,5.43
1777399775101,2413405,-0.63,-0.54,-0.52,-2.20,3.78,4.39
1777399775111,2413415,-0.62,-0.54,-0.54,1.95,12.57,5.62
1777399775121,2413425,-0.62,-0.54,-0.53,7.32,24.17,8.00
1777399775131,2413435,-0.63,-0.52,-0.49,11.72,33.33,10.38
1777399775141,2413445,-0.66,-0.51,-0.45,12.02,36.19,11.66
1777399775151,2413455,-0.66,-0.51,-0.43,7.87,33.02,11.66
1777399775161,2413465,-0.67,-0.52,-0.43,1.71,25.45,11.29
1777399775171,2413475,-0.66,-0.53,-0.46,-3.54,15.81,10.01
1777399775181,2413485,-0.65,-0.53,-0.49,-5.86,7.45,8.06
1777399775191,2413495,-0.64,-0.53,-0.52,-6.10,1.40,6.29
1777399775201,2413505,-0.62,-0.53,-0.55,-4.39,-1.95,3.97
1777399775211,2413515,-0.62,-0.53,-0.56,-0.73,-2.93,1.95
1777399775221,2413525,-0.63,-0.53,-0.57,3.72,-2.99,0.73
1777399775231,2413535,-0.62,-0.54,-0.56,8.00,-2.75,-0.73
1777399775241,2413545,-0.63,-0.54,-0.54,11.17,-3.72,-2.01
1777399775251,2413555,-0.63,-0.55,-0.52,12.88,-5.68,-2.81
1777399775261,2413565,-0.62,-0.56,-0.52,13.31,-8.79,-3.36
1777399775271,2413575,-0.62,-0.56,-0.52,13.43,-11.90,-3.91
1777399775291,2413595,-0.61,-0.57,-0.52,20.45,-15.44,-1.53
1777399775311,2413615,-0.61,-0.59,-0.49,25.94,-16.05,-0.55
1777399775331,2413635,-0.66,-0.54,-0.46,27.59,-17.15,-0.49
1777399775351,2413655,-0.62,-0.52,-0.40,21.00,-20.20,-1.46
1777399775361,2413665,-0.74,-0.57,-0.42,15.69,-25.51,1.65
1777399775375,2413675,-0.79,-0.53,-0.42,9.09,-26.43,2.14
1777399775383,2413685,-0.70,-0.56,-0.47,8.85,-21.67,-3.66
