host_time_ms,arduino_time_ms,ax,ay,az,gx,gy,gz
1777399781160,2413695,-0.70,-0.53,-0.47,13.43,-20.26,-7.08
1777399781161,2413705,-0.70,-0.53,-0.47,15.75,-15.50,-7.57
1777399781161,2413715,-0.68,-0.54,-0.45,17.82,-6.84,-7.26
1777399781161,2413725,-0.68,-0.54,-0.43,19.78,-3.17,-5.98
1777399781162,2413735,-0.69,-0.53,-0.41,21.24,-3.11,-4.33
1777399781162,2413745,-0.69,-0.52,-0.39,21.12,-5.31,-3.97
1777399781162,2413755,-0.68,-0.51,-0.38,17.94,-7.93,-4.82
1777399781163,2413765,-0.69,-0.52,-0.37,12.08,-8.67,-4.46
1777399781163,2413775,-0.68,-0.53,-0.40,7.57,-9.46,-4.33
1777399781163,2413785,-0.68,-0.52,-0.41,5.92,-9.40,-4.76
1777399781163,2413795,-0.69,-0.53,-0.42,5.19,-7.32,-4.64
1777399781164,2413805,-0.68,-0.54,-0.42,5.92,-4.88,-5.19
1777399781164,2413815,-0.68,-0.55,-0.42,7.45,-3.36,-5.92
1777399781164,2413825,-0.69,-0.55,-0.40,9.16,-3.30,-5.19
1777399781165,2413835,-0.68,-0.56,-0.39,10.25,-5.55,-3.78
1777399781165,2413845,-0.67,-0.57,-0.39,10.56,-8.61,-2.56
1777399781165,2413855,-0.67,-0.57,-0.40,10.56,-11.17,-1.71
1777399781165,2413865,-0.67,-0.58,-0.40,10.74,-12.45,-0.98
1777399781165,2413875,-0.68,-0.58,-0.40,11.23,-12.45,-0.79
1777399781166,2413885,-0.69,-0.59,-0.39,11.17,-11.72,-1.59
1777399781166,2413895,-0.70,-0.58,-0.40,10.62,-11.84,-3.97
1777399781166,2413905,-0.69,-0.61,-0.42,11.54,-11.35,-3.97
1777399781166,2413915,-0.70,-0.61,-0.41,14.59,-8.61,-3.97
1777399781167,2413925,-0.70,-0.60,-0.40,16.54,-6.47,-4.88
1777399781167,2413945,-0.71,-0.60,-0.38,14.65,-6.65,-5.25
1777399781167,2413965,-0.71,-0.59,-0.38,10.19,-11.47,-6.84
1777399781167,2413985,-0.68,-0.61,-0.41,9.46,-13.12,-10.25
1777399781168,2414005,-0.68,-0.60,-0.41,14.34,-8.67,-11.90
1777399781168,2414015,-0.69,-0.59,-0.39,16.17,-5.62,-12.21
1777399781168,2414025,-0.69,-0.59,-0.37,16.91,-3.66,-12.33
1777399781168,2414035,-0.69,-0.59,-0.35,15.93,-3.11,-12.45
1777399781169,2414045,-0.68,-0.59,-0.34,13.98,-3.78,-11.66
1777399781169,2414055,-0.68,-0.59,-0.34,11.60,-4.82,-10.31
1777399781169,2414065,-0.67,-0.59,-0.33,8.54,-5.19,-9.09
1777399781170,2414075,-0.68,-0.60,-0.33,5.19,-5.62,-8.12
1777399781170,2414085,-0.68,-0.61,-0.34,2.99,-5.86,-7.32
1777399781170,2414095,-0.68,-0.62,-0.36,3.17,-5.55,-7.39
1777399781170,2414105,-0.68,-0.61,-0.36,4.82,-4.58,-7.63
1777399781171,2414115,-0.67,-0.61,-0.35,6.84,-3.23,-7.51
1777399781171,2414125,-0.67,-0.60,-0.35,7.26,-2.69,-7.20
1777399781171,2414135,-0.68,-0.60,-0.35,6.23,-2.81,-7.87
1777399781171,2414145,-0.68,-0.60,-0.36,5.49,-2.99,-8.36
1777399781171,2414155,-0.67,-0.60,-0.36,4.82,-3.48,-7.75
1777399781172,2414165,-0.66,-0.61,-0.37,3.54,-3.97,-6.77
1777399781172,2414175,-0.66,-0.61,-0.38,2.14,-4.09,-6.04
1777399781172,2414185,-0.66,-0.61,-0.38,0.98,-4.21,-4.94
1777399781172,2414195,-0.66,-0.61,-0.38,-0.12,-4.52,-2.93
1777399781172,2414205,-0.68,-0.61,-0.38,-0.67,-4.82,-0.92
1777399781173,2414215,-0.69,-0.60,-0.39,-0.49,-4.82,-0.67
1777399781173,2414225,-0.70,-0.59,-0.38,0.06,-4.03,-2.75
1777399781173,2414235,-0.70,-0.58,-0.37,-0.37,-3.85,-4.58
1777399781173,2414245,-0.69,-0.59,-0.37,-1.53,-4.09,-4.64
1777399781173,2414255,-0.68,-0.60,-0.38,-2.01,-4.39,-3.91
1777399781174,2414265,-0.67,-0.59,-0.39,-0.98,-4.39,-3.36
1777399781174,2414275,-0.66,-0.59,-0.38,0.24,-4.03,-1.65
1777399781174,2414295,-0.65,-0.58,-0.37,2.08,-4.88,1.22
1777399781174,2414315,-0.67,-0.59,-0.39,4.70,-4.64,-0.98
1777399781174,2414335,-0.68,-0.59,-0.37,7.45,-4.94,-2.93
1777399781175,2414345,-0.68,-0.60,-0.37,7.08,-6.29,-3.48
1777399781175,2414355,-0.68,-0.60,-0.37,6.65,-7.69,-3.91
1777399781175,2414365,-0.68,-0.61,-0.38,6.71,-8.54,-3.48
1777399781175,2414375,-0.69,-0.61,-0.37,6.96,-8.54,-3.17
1777399781175,2414385,-0.70,-0.61,-0.37,6.90,-8.36,-3.23
1777399781176,2414395,-0.69,-0.61,-0.37,6.04,-7.57,-3.42
1777399781176,2414405,-0.69,-0.61,-0.37,5.00,-6.29,-3.78
1777399781176,2414415,-0.69,-0.62,-0.38,4.58,-4.82,-3.78
1777399781176,2414425,-0.69,-0.62,-0.37,4.46,-3.48,-3.85
1777399781176,2414435,-0.69,-0.63,-0.36,4.39,-3.36,-4.27
1777399781177,2414445,-0.69,-0.63,-0.36,4.21,-4.52,-4.52
1777399781177,2414455,-0.68,-0.63,-0.37,4.15,-6.35,-4.64
1777399781177,2414465,-0.68,-0.62,-0.37,3.72,-7.75,-4.46
1777399781177,2414475,-0.68,-0.62,-0.37,2.99,-8.42,-3.66
1777399781177,2414485,-0.68,-0.61,-0.38,2.38,-8.12,-3.11
1777399781177,2414495,-0.70,-0.61,-0.38,2.62,-6.47,-3.30
1777399781178,2414505,-0.71,-0.61,-0.38,3.48,-4.09,-4.46
1777399781178,2414515,-0.71,-0.61,-0.37,4.33,-2.44,-5.86
1777399781178,2414525,-0.71,-0.61,-0.36,5.00,-2.50,-6.84
1777399781178,2414535,-0.71,-0.61,-0.36,5.43,-3.78,-8.06
1777399781178,2414545,-0.70,-0.60,-0.36,5.43,-5.55,-9.70
1777399781178,2414555,-0.69,-0.60,-0.36,5.25,-7.26,-10.62
1777399781179,2414565,-0.68,-0.60,-0.36,5.07,-8.24,-10.50
1777399781179,2414575,-0.67,-0.59,-0.36,5.19,-8.12,-9.77
1777399781179,2414585,-0.67,-0.59,-0.36,5.31,-7.32,-8.97
1777399781179,2414595,-0.66,-0.59,-0.35,5.07,-6.47,-8.18
1777399781179,2414605,-0.66,-0.58,-0.35,4.82,-5.86,-7.20
1777399781180,2414615,-0.67,-0.59,-0.36,4.76,-5.37,-7.51
1777399781180,2414635,-0.67,-0.59,-0.36,6.16,-4.46,-9.09
1777399781180,2414655,-0.67,-0.59,-0.36,6.53,-7.02,-8.54
1777399781180,2414675,-0.66,-0.60,-0.37,5.98,-8.12,-6.90
1777399781180,2414695,-0.66,-0.61,-0.37,6.10,-6.65,-4.33
1777399781181,2414705,-0.66,-0.61,-0.36,6.04,-5.55,-3.66
1777399781181,2414715,-0.67,-0.62,-0.36,5.86,-5.07,-3.23
1777399781181,2414725,-0.68,-0.62,-0.36,5.98,-5.00,-2.75
1777399781181,2414735,-0.68,-0.62,-0.36,6.10,-5.07,-2.75
1777399781181,2414745,-0.69,-0.62,-0.35,6.41,-4.94,-3.23
1777399781181,2414755,-0.70,-0.62,-0.34,6.41,-5.37,-3.05
1777399781182,2414765,-0.70,-0.63,-0.34,5.68,-6.53,-2.99
1777399781182,2414775,-0.70,-0.63,-0.35,4.46,-7.32,-3.23
1777399781182,2414785,-0.70,-0.63,-0.35,3.60,-7.51,-4.09
1777399781182,2414795,-0.69,-0.63,-0.35,3.17,-7.81,-4.88
1777399781182,2414805,-0.69,-0.62,-0.35,2.62,-7.75,-4.64
1777399781182,2414815,-0.68,-0.62,-0.36,2.14,-6.84,-3.85
1777399781183,2414825,-0.69,-0.62,-0.36,1.83,-5.49,-3.36
1777399781183,2414835,-0.69,-0.62,-0.35,2.14,-4.33,-3.54
1777399781183,2414845,-0.69,-0.62,-0.35,2.08,-3.85,-3.91
1777399781183,2414855,-0.69,-0.62,-0.35,1.65,-3.97,-4.21
1777399781183,2414865,-0.69,-0.63,-0.35,1.46,-4.27,-4.33
1777399781183,2414875,-0.68,-0.63,-0.36,1.65,-4.58,-4.46
1777399781184,2414885,-0.68,-0.62,-0.36,1.95,-4.64,-4.15
1777399781184,2414895,-0.68,-0.62,-0.36,2.20,-4.15,-3.78
1777399781184,2414905,-0.68,-0.61,-0.36,2.75,-3.30,-3.11
1777399781184,2414915,-0.69,-0.60,-0.37,3.54,-2.32,-2.69
1777399781184,2414925,-0.69,-0.60,-0.36,4.58,-0.98,-3.05
1777399781184,2414935,-0.69,-0.60,-0.35,5.49,-0.43,-3.42
1777399781184,2414945,-0.69,-0.60,-0.35,5.92,-1.04,-3.78
1777399781185,2414955,-0.68,-0.60,-0.35,6.04,-2.38,-4.21
1777399781185,2414965,-0.68,-0.60,-0.35,6.10,-3.78,-5.43
1777399781185,2414985,-0.67,-0.61,-0.35,8.00,-6.10,-4.64
1777399781185,2415005,-0.66,-0.62,-0.34,7.93,-6.04,-4.88
1777399781185,2415025,-0.65,-0.62,-0.34,6.71,-6.59,-4.88
1777399781185,2415035,-0.65,-0.62,-0.33,6.10,-6.96,-4.58
1777399781186,2415045,-0.65,-0.62,-0.33,5.68,-7.14,-4.21
1777399781186,2415055,-0.64,-0.62,-0.33,5.31,-7.63,-3.78
1777399781186,2415065,-0.64,-0.63,-0.33,5.00,-8.36,-3.23
1777399781186,2415075,-0.64,-0.63,-0.33,4.70,-8.73,-2.44
1777399781186,2415085,-0.64,-0.63,-0.33,4.09,-8.79,-1.46
1777399781186,2415095,-0.65,-0.63,-0.33,3.48,-8.97,-0.43
1777399781187,2415105,-0.65,-0.63,-0.33,2.69,-9.46,-0.12
1777399781187,2415115,-0.65,-0.63,-0.34,2.01,-10.01,0.06
1777399781187,2415125,-0.66,-0.63,-0.35,1.65,-9.70,0.55
1777399781187,2415135,-0.66,-0.63,-0.36,1.40,-8.36,0.85
1777399781187,2415145,-0.67,-0.63,-0.36,1.71,-6.77,0.92
1777399781187,2415155,-0.68,-0.63,-0.36,2.62,-5.86,1.28
1777399781188,2415165,-0.69,-0.63,-0.36,3.42,-5.92,1.77
1777399781188,2415175,-0.71,-0.62,-0.36,3.85,-6.53,1.95
1777399781188,2415185,-0.72,-0.63,-0.36,4.27,-7.32,1.89
1777399781188,2415195,-0.73,-0.62,-0.36,4.94,-8.24,1.40
1777399781188,2415205,-0.74,-0.62,-0.36,5.74,-8.85,1.34
1777399781188,2415215,-0.74,-0.62,-0.36,6.53,-8.97,1.46
1777399781189,2415225,-0.74,-0.61,-0.36,6.53,-8.06,0.92
1777399781189,2415235,-0.75,-0.60,-0.36,6.59,-6.59,0.37
1777399781189,2415245,-0.75,-0.60,-0.35,6.47,-5.00,0.12
1777399781189,2415255,-0.76,-0.60,-0.35,6.53,-3.97,0.06
1777399781189,2415265,-0.75,-0.60,-0.35,6.53,-3.66,-0.18
1777399781189,2415275,-0.74,-0.60,-0.35,6.29,-3.36,-0.73
1777399781190,2415285,-0.73,-0.60,-0.34,6.35,-3.11,-1.10
1777399781190,2415295,-0.72,-0.60,-0.34,6.84,-3.17,-0.98
1777399781190,2415305,-0.71,-0.61,-0.33,6.77,-3.54,-1.28
1777399781190,2415325,-0.69,-0.61,-0.33,5.98,-4.15,-2.14
1777399781190,2415345,-0.69,-0.61,-0.32,5.55,-2.50,0.00
1777399781190,2415365,-0.70,-0.61,-0.31,4.27,-1.95,0.55
1777399781191,2415385,-0.70,-0.61,-0.31,3.17,-3.54,-0.49
1777399781191,2415395,-0.70,-0.61,-0.31,3.30,-3.97,-0.67
1777399781191,2415405,-0.69,-0.60,-0.31,3.54,-4.09,-0.61
1777399781191,2415415,-0.69,-0.60,-0.30,3.23,-4.09,-0.73
1777399781191,2415425,-0.69,-0.60,-0.30,2.32,-3.91,-0.67
1777399781191,2415435,-0.70,-0.60,-0.30,1.53,-3.72,-0.37
1777399781191,2415445,-0.70,-0.60,-0.31,0.98,-3.78,-0.24
1777399781192,2415455,-0.70,-0.60,-0.32,0.49,-3.54,-0.49
1777399781192,2415465,-0.70,-0.60,-0.33,0.00,-2.93,-0.67
1777399781192,2415475,-0.70,-0.60,-0.34,-0.37,-2.26,-1.34
1777399781192,2415485,-0.70,-0.60,-0.34,-0.24,-1.34,-2.26
1777399781192,2415495,-0.70,-0.60,-0.35,0.24,-0.49,-2.50
1777399781192,2415505,-0.70,-0.60,-0.34,0.92,-0.49,-2.50
1777399781192,2415515,-0.69,-0.60,-0.34,1.28,-1.40,-2.87
1777399781193,2415525,-0.70,-0.60,-0.34,1.22,-3.23,-3.05
1777399781193,2415535,-0.70,-0.60,-0.34,1.40,-5.07,-2.62
1777399781193,2415545,-0.69,-0.60,-0.34,1.59,-6.47,-2.75
1777399781193,2415555,-0.70,-0.60,-0.34,1.59,-7.08,-2.56
1777399781193,2415565,-0.70,-0.59,-0.34,2.01,-7.32,-1.89
1777399781193,2415575,-0.71,-0.59,-0.34,2.44,-6.90,-2.26
1777399781194,2415585,-0.72,-0.59,-0.34,3.17,-5.80,-3.54
1777399781194,2415595,-0.72,-0.58,-0.33,3.91,-4.76,-5.55
1777399781194,2415605,-0.71,-0.59,-0.33,4.15,-4.39,-7.20
1777399781194,2415615,-0.71,-0.59,-0.31,4.21,-4.88,-7.51
1777399781194,2415625,-0.70,-0.60,-0.31,3.78,-6.53,-7.26
1777399781194,2415635,-0.68,-0.61,-0.32,2.99,-8.48,-7.32
1777399781194,2415645,-0.67,-0.62,-0.32,2.87,-9.64,-7.51
1777399781195,2415655,-0.66,-0.62,-0.32,3.11,-10.13,-6.71
1777399781195,2415675,-0.67,-0.63,-0.31,1.83,-9.58,-5.55
1777399781195,2415695,-0.69,-0.63,-0.30,1.53,-7.93,-6.29
1777399781195,2415715,-0.72,-0.63,-0.29,1.22,-7.57,-4.52
1777399781195,2415735,-0.73,-0.63,-0.30,-0.92,-9.28,-5.13
1777399781195,2415745,-0.74,-0.63,-0.31,-1.16,-9.52,-5.25
1777399781195,2415755,-0.74,-0.63,-0.32,-0.79,-8.67,-5.25
1777399781196,2415765,-0.75,-0.63,-0.31,-0.49,-7.26,-6.10
1777399781196,2415775,-0.76,-0.62,-0.31,0.00,-5.86,-6.77
1777399781196,2415785,-0.76,-0.62,-0.31,0.06,-4.88,-7.32
1777399781196,2415795,-0.77,-0.61,-0.30,-0.61,-4.27,-8.00
1777399781196,2415805,-0.77,-0.61,-0.31,-0.98,-4.21,-8.06
1777399781196,2415815,-0.76,-0.61,-0.31,-1.40,-4.27,-8.30
1777399781196,2415825,-0.74,-0.61,-0.32,-1.83,-4.21,-8.91
1777399781197,2415835,-0.73,-0.60,-0.33,-2.01,-3.85,-9.16
1777399781197,2415845,-0.72,-0.60,-0.34,-1.95,-3.36,-9.03
1777399781197,2415855,-0.72,-0.59,-0.34,-2.08,-2.38,-8.73
1777399781197,2415865,-0.71,-0.59,-0.35,-2.01,-1.28,-8.06
1777399781197,2415875,-0.70,-0.59,-0.36,-1.83,-0.43,-7.57
1777399781197,2415885,-0.69,-0.59,-0.36,-1.83,0.24,-7.14
1777399781198,2415895,-0.69,-0.59,-0.36,-1.95,0.61,-6.35
1777399781198,2415905,-0.68,-0.59,-0.36,-2.44,0.37,-5.80
1777399781198,2415915,-0.68,-0.59,-0.36,-2.93,-0.43,-5.37
1777399781198,2415925,-0.67,-0.60,-0.36,-2.75,-1.28,-4.82
1777399781198,2415935,-0.67,-0.59,-0.37,-2.01,-2.01,-4.27
1777399781198,2415945,-0.67,-0.59,-0.36,-1.40,-2.62,-3.91
1777399781198,2415955,-0.66,-0.59,-0.36,-1.16,-3.05,-3.60
1777399781199,2415965,-0.66,-0.59,-0.36,-1.04,-3.05,-3.30
1777399781199,2415975,-0.66,-0.59,-0.37,-0.85,-2.69,-2.69
1777399781199,2415985,-0.67,-0.59,-0.36,0.06,-2.01,-1.89
1777399781199,2415995,-0.68,-0.59,-0.35,0.85,-1.59,-1.46
1777399781199,2416015,-0.70,-0.59,-0.34,0.98,-3.11,-1.16
1777399781199,2416035,-0.71,-0.58,-0.35,1.40,-3.42,-1.71
1777399781199,2416055,-0.72,-0.58,-0.34,2.32,-3.30,-2.56
1777399781199,2416075,-0.72,-0.58,-0.34,2.50,-3.72,-3.54
1777399781200,2416085,-0.71,-0.58,-0.35,2.56,-3.72,-3.48
1777399781200,2416095,-0.72,-0.57,-0.35,2.50,-3.30,-3.36
1777399781200,2416105,-0.72,-0.57,-0.35,2.56,-2.69,-2.93
1777399781200,2416115,-0.71,-0.57,-0.35,2.44,-2.38,-2.75
1777399781200,2416125,-0.71,-0.56,-0.35,2.38,-2.20,-2.81
1777399781200,2416135,-0.70,-0.56,-0.36,2.56,-2.44,-2.87
1777399781200,2416145,-0.69,-0.57,-0.36,2.81,-2.81,-3.30
1777399781201,2416155,-0.68,-0.57,-0.36,3.11,-3.30,-2.99
1777399781201,2416165,-0.67,-0.58,-0.36,3.36,-3.97,-2.38
1777399781201,2416175,-0.67,-0.59,-0.36,3.42,-4.76,-2.08
1777399781201,2416185,-0.67,-0.60,-0.35,3.48,-5.74,-2.01
1777399781201,2416195,-0.67,-0.60,-0.35,3.97,-6.59,-1.16
1777399781201,2416205,-0.68,-0.60,-0.35,3.97,-6.71,-0.37
1777399781201,2416215,-0.69,-0.60,-0.34,3.60,-6.16,-0.12
1777399781202,2416225,-0.70,-0.60,-0.33,2.99,-5.25,-0.06
1777399781202,2416235,-0.70,-0.61,-0.33,2.32,-4.76,-0.31
1777399781202,2416245,-0.71,-0.61,-0.32,1.83,-4.58,-1.59
1777399781202,2416255,-0.71,-0.61,-0.32,1.71,-4.88,-2.44
1777399781202,2416265,-0.71,-0.61,-0.32,1.59,-5.68,-3.23
1777399781202,2416275,-0.71,-0.61,-0.32,1.46,-6.35,-3.60
1777399781203,2416285,-0.71,-0.61,-0.32,0.98,-6.96,-3.60
1777399781203,2416295,-0.71,-0.61,-0.33,0.49,-7.20,-4.15
1777399781203,2416305,-0.71,-0.61,-0.34,-0.18,-6.96,-4.94
1777399781203,2416315,-0.71,-0.61,-0.34,-0.37,-6.04,-5.49
1777399781203,2416325,-0.71,-0.61,-0.34,-0.24,-5.13,-6.04
1777399781203,2416335,-0.71,-0.60,-0.34,0.06,-4.88,-6.10
1777399781203,2416345,-0.72,-0.60,-0.34,0.06,-4.94,-6.65
1777399781203,2416365,-0.72,-0.60,-0.36,0.79,-4.82,-7.02
1777399781204,2416385,-0.72,-0.58,-0.36,1.40,-4.03,-6.77
1777399781204,2416405,-0.71,-0.58,-0.36,1.89,-4.58,-7.08
1777399781204,2416425,-0.70,-0.58,-0.36,1.83,-5.31,-6.77
1777399781204,2416435,-0.70,-0.58,-0.35,2.01,-5.00,-5.86
1777399781204,2416445,-0.70,-0.58,-0.35,2.08,-4.70,-5.19
1777399781204,2416455,-0.70,-0.58,-0.35,1.95,-4.21,-4.88
1777399781204,2416465,-0.70,-0.58,-0.35,1.89,-3.72,-4.70
1777399781205,2416475,-0.70,-0.57,-0.35,1.89,-3.11,-4.46
1777399781205,2416485,-0.71,-0.57,-0.34,1.89,-2.56,-3.85
1777399781205,2416495,-0.71,-0.58,-0.34,1.77,-2.44,-3.48
1777399781205,2416505,-0.71,-0.58,-0.34,1.83,-2.87,-3.30
1777399781205,2416515,-0.71,-0.58,-0.34,2.08,-3.91,-3.11
1777399781205,2416525,-0.71,-0.58,-0.34,2.01,-4.82,-3.42
1777399781205,2416535,-0.70,-0.58,-0.34,1.71,-5.31,-3.66
1777399781205,2416545,-0.70,-0.58,-0.34,1.53,-5.00,-2.75
1777399781206,2416555,-0.70,-0.58,-0.35,1.34,-4.33,-1.59
1777399781206,2416565,-0.70,-0.57,-0.35,0.79,-3.54,-0.85
1777399781206,2416575,-0.70,-0.57,-0.35,0.12,-3.05,-0.06
1777399781206,2416585,-0.71,-0.57,-0.36,-0.73,-2.75,0.49
1777399781206,2416595,-0.72,-0.57,-0.36,-0.79,-2.32,0.12
1777399781206,2416605,-0.73,-0.58,-0.37,0.00,-1.89,-0.67
1777399781206,2416615,-0.73,-0.57,-0.38,1.04,-1.71,-1.77
1777399781206,2416625,-0.73,-0.57,-0.37,1.34,-1.46,-2.81
1777399781207,2416635,-0.74,-0.57,-0.38,1.65,-2.14,-3.66
1777399781207,2416645,-0.73,-0.57,-0.39,2.75,-1.89,-4.39
1777399781207,2416655,-0.74,-0.56,-0.38,4.27,-0.43,-5.13
1777399781207,2416665,-0.74,-0.56,-0.37,5.43,0.73,-5.13
1777399781207,2416675,-0.73,-0.56,-0.37,5.98,1.22,-4.94
1777399781207,2416685,-0.73,-0.55,-0.37,6.04,1.53,-4.94
1777399781207,2416705,-0.72,-0.55,-0.36,5.92,3.42,-5.62
1777399781208,2416725,-0.69,-0.55,-0.36,4.82,0.43,-6.90
1777399781208,2416745,-0.63,-0.57,-0.36,4.52,-2.44,-7.08
1777399781208,2416765,-0.61,-0.60,-0.36,4.64,-6.47,-5.86
1777399781208,2416775,-0.61,-0.62,-0.36,4.64,-8.97,-5.43
1777399781208,2416785,-0.61,-0.63,-0.36,4.88,-11.60,-4.94
1777399781208,2416795,-0.62,-0.64,-0.35,5.19,-13.31,-4.33
1777399781208,2416805,-0.63,-0.64,-0.35,5.55,-14.40,-4.09
1777399781208,2416815,-0.65,-0.64,-0.34,5.62,-15.44,-4.09
1777399781209,2416825,-0.67,-0.63,-0.33,5.49,-16.11,-4.27
1777399781209,2416835,-0.69,-0.63,-0.32,5.19,-16.36,-4.39
1777399781209,2416845,-0.70,-0.63,-0.31,4.52,-16.48,-4.52
1777399781209,2416855,-0.72,-0.62,-0.30,3.36,-16.54,-4.82
1777399781209,2416865,-0.73,-0.62,-0.30,2.20,-16.42,-4.82
1777399781209,2416875,-0.74,-0.61,-0.31,0.98,-15.56,-5.37
1777399781209,2416885,-0.76,-0.61,-0.31,0.00,-13.98,-6.10
1777399781210,2416895,-0.77,-0.60,-0.32,-0.43,-11.84,-6.59
1777399781210,2416905,-0.77,-0.60,-0.31,-0.79,-9.52,-7.26
1777399781210,2416915,-0.78,-0.60,-0.31,-0.98,-7.93,-7.51
1777399781210,2416925,-0.78,-0.60,-0.32,-1.28,-7.20,-7.51
1777399781210,2416935,-0.78,-0.59,-0.33,-1.65,-6.90,-8.36
1777399781210,2416945,-0.78,-0.58,-0.34,-1.53,-6.53,-9.03
1777399781210,2416955,-0.77,-0.58,-0.35,-1.10,-6.04,-9.28
1777399781211,2416965,-0.76,-0.57,-0.36,-0.85,-5.43,-9.34
1777399781211,2416975,-0.75,-0.57,-0.37,-0.67,-4.39,-8.73
1777399781211,2416985,-0.74,-0.57,-0.37,-0.43,-3.36,-7.75
1777399781211,2416995,-0.73,-0.56,-0.38,-0.55,-2.32,-7.20
1777399781211,2417005,-0.72,-0.56,-0.39,-0.43,-1.28,-6.84
1777399781211,2417015,-0.72,-0.56,-0.39,0.49,-0.43,-5.19
1777399781211,2417025,-0.71,-0.56,-0.39,1.40,0.49,-3.60
1777399781212,2417035,-0.71,-0.56,-0.40,1.77,1.77,-2.56
1777399781212,2417055,-0.71,-0.56,-0.38,3.66,2.14,-1.83
1777399781212,2417075,-0.70,-0.57,-0.37,4.03,-2.87,-2.08
1777399781212,2417095,-0.69,-0.58,-0.36,5.25,-4.33,-0.37
1777399781212,2417115,-0.69,-0.58,-0.34,5.31,-2.32,0.31
1777399781212,2417125,-0.70,-0.58,-0.33,5.07,-1.28,0.43
1777399781212,2417135,-0.71,-0.58,-0.33,4.70,-0.79,0.18
1777399781212,2417145,-0.71,-0.58,-0.33,4.39,-0.92,-0.06
1777399781212,2417155,-0.71,-0.59,-0.33,4.09,-1.34,-0.67
1777399781213,2417165,-0.70,-0.59,-0.34,3.91,-1.77,-1.34
1777399781213,2417175,-0.69,-0.59,-0.34,3.85,-2.01,-1.71
1777399781213,2417185,-0.68,-0.59,-0.35,3.91,-2.20,-2.20
1777399781213,2417195,-0.68,-0.60,-0.34,4.09,-2.62,-2.44
1777399781213,2417205,-0.68,-0.60,-0.34,4.33,-3.78,-2.26
1777399781213,2417215,-0.68,-0.60,-0.34,3.78,-5.19,-2.38
1777399781213,2417225,-0.69,-0.61,-0.34,3.23,-6.35,-2.62
1777399781213,2417235,-0.68,-0.61,-0.34,2.87,-6.84,-2.75
1777399781214,2417245,-0.68,-0.61,-0.34,2.20,-6.71,-3.54
1777399781214,2417255,-0.69,-0.61,-0.34,1.53,-6.29,-4.33
1777399781214,2417265,-0.70,-0.61,-0.34,1.10,-6.04,-4.39
1777399781214,2417275,-0.71,-0.61,-0.34,0.85,-5.68,-4.58
1777399781214,2417285,-0.72,-0.60,-0.34,0.92,-5.31,-4.94
1777399781214,2417295,-0.73,-0.59,-0.34,0.98,-4.94,-5.25
1777399781214,2417305,-0.74,-0.59,-0.34,0.73,-5.00,-5.55
1777399781214,2417315,-0.74,-0.58,-0.34,0.61,-5.19,-5.68
1777399781215,2417325,-0.74,-0.58,-0.34,0.61,-5.13,-5.86
1777399781215,2417335,-0.75,-0.57,-0.35,0.55,-4.82,-6.10
1777399781215,2417345,-0.75,-0.57,-0.35,0.37,-4.52,-6.41
1777399781215,2417355,-0.75,-0.57,-0.35,0.37,-4.27,-6.59
1777399781215,2417365,-0.75,-0.56,-0.35,0.55,-4.21,-6.90
1777399781215,2417375,-0.74,-0.56,-0.36,0.92,-4.39,-7.32
1777399781215,2417395,-0.72,-0.55,-0.37,1.28,-3.78,-6.77
1777399781215,2417415,-0.71,-0.55,-0.38,1.71,-1.95,-5.62
1777399781216,2417435,-0.70,-0.56,-0.38,2.26,-1.34,-4.70
1777399781216,2417455,-0.70,-0.56,-0.37,3.23,-2.20,-4.27
1777399781216,2417465,-0.70,-0.57,-0.38,3.72,-3.17,-3.97
1777399781216,2417475,-0.70,-0.57,-0.37,4.33,-3.72,-4.21
1777399781216,2417485,-0.69,-0.57,-0.37,5.07,-4.03,-4.52
1777399781216,2417495,-0.68,-0.57,-0.37,5.43,-4.03,-4.21
1777399781216,2417505,-0.68,-0.58,-0.36,5.62,-3.91,-3.48
1777399781216,2417515,-0.69,-0.58,-0.35,5.68,-3.54,-2.87
1777399781217,2417525,-0.69,-0.59,-0.35,5.49,-3.30,-2.50
1777399781217,2417535,-0.70,-0.59,-0.34,5.31,-3.60,-1.89
1777399781217,2417545,-0.71,-0.59,-0.34,5.43,-3.91,-1.65
1777399781217,2417555,-0.72,-0.59,-0.34,5.43,-4.15,-1.95
1777399781217,2417565,-0.73,-0.59,-0.34,5.37,-4.27,-2.50
1777399781217,2417575,-0.74,-0.59,-0.34,5.49,-4.03,-3.54
1777399781217,2417585,-0.74,-0.59,-0.34,5.43,-3.66,-4.88
1777399781217,2417595,-0.73,-0.58,-0.34,5.19,-3.23,-5.62
1777399781217,2417605,-0.73,-0.58,-0.34,4.70,-3.23,-6.04
1777399781218,2417615,-0.72,-0.59,-0.35,4.15,-3.36,-6.41
1777399781218,2417625,-0.71,-0.59,-0.35,3.91,-3.60,-6.77
1777399781218,2417635,-0.70,-0.59,-0.35,3.91,-3.97,-7.14
1777399781218,2417645,-0.70,-0.59,-0.35,3.97,-4.58,-7.26
1777399781218,2417655,-0.69,-0.59,-0.35,3.85,-4.82,-7.45
1777399781218,2417665,-0.69,-0.58,-0.36,3.72,-4.64,-7.81
1777399781218,2417675,-0.68,-0.58,-0.36,3.66,-4.03,-7.57
1777399781218,2417685,-0.67,-0.58,-0.36,3.36,-3.17,-6.71
1777399781219,2417695,-0.68,-0.57,-0.36,2.87,-2.69,-5.55
1777399781219,2417705,-0.68,-0.57,-0.35,2.50,-2.62,-4.27
1777399781219,2417715,-0.68,-0.57,-0.35,1.59,-2.93,-3.66
1777399781219,2417725,-0.68,-0.58,-0.35,1.46,-3.97,-4.03
1777399781219,2417745,-0.68,-0.59,-0.35,5.13,-7.75,-4.58
1777399781219,2417765,-0.68,-0.61,-0.33,5.00,-10.68,-4.27
1777399781219,2417785,-0.67,-0.62,-0.32,4.03,-11.66,-3.36
1777399781219,2417805,-0.68,-0.62,-0.31,2.81,-10.62,-2.32
1777399781220,2417815,-0.69,-0.62,-0.31,2.08,-9.83,-1.65
1777399781220,2417825,-0.70,-0.63,-0.31,1.28,-8.79,-1.83
1777399781220,2417835,-0.70,-0.63,-0.31,0.98,-8.18,-2.62
1777399781220,2417845,-0.70,-0.63,-0.31,0.67,-8.18,-3.60
1777399781220,2417855,-0.71,-0.63,-0.31,0.06,-8.73,-4.39
1777399781220,2417865,-0.71,-0.63,-0.31,-0.67,-9.58,-3.91
1777399781220,2417875,-0.71,-0.63,-0.32,-1.34,-9.95,-3.36
1777399781220,2417885,-0.71,-0.63,-0.32,-1.89,-9.58,-3.60
1777399781221,2417895,-0.72,-0.63,-0.32,-2.14,-9.22,-3.72
1777399781221,2417905,-0.73,-0.62,-0.32,-2.26,-9.09,-3.85
1777399781221,2417915,-0.74,-0.61,-0.32,-2.99,-8.54,-4.33
1777399781221,2417925,-0.74,-0.61,-0.33,-3.54,-7.57,-4.82
1777399781221,2417935,-0.74,-0.60,-0.34,-3.78,-6.23,-5.07
1777399781221,2417945,-0.74,-0.59,-0.34,-4.09,-5.25,-5.13
1777399781221,2417955,-0.74,-0.59,-0.35,-4.58,-4.64,-5.00
1777399781221,2417965,-0.75,-0.59,-0.36,-5.00,-4.33,-4.88
1777399781222,2417975,-0.75,-0.58,-0.36,-4.82,-4.21,-4.94
1777399781222,2417985,-0.75,-0.58,-0.37,-4.09,-3.91,-4.82
1777399781222,2417995,-0.75,-0.57,-0.38,-3.30,-3.05,-4.46
1777399781222,2418005,-0.75,-0.57,-0.38,-2.50,-1.95,-4.03
1777399781222,2418015,-0.75,-0.56,-0.37,-1.89,-0.67,-3.72
1777399781222,2418025,-0.76,-0.55,-0.38,-1.34,0.18,-3.30
1777399781222,2418035,-0.75,-0.55,-0.38,-0.85,0.67,-2.99
1777399781222,2418045,-0.75,-0.54,-0.37,-0.67,1.22,-3.66
1777399781222,2418055,-0.74,-0.54,-0.37,-0.73,1.28,-4.21
1777399781223,2418065,-0.73,-0.54,-0.38,-0.67,0.67,-3.85
1777399781223,2418085,-0.70,-0.55,-0.38,0.55,-1.28,-3.78
1777399781223,2418105,-0.69,-0.55,-0.37,0.92,-1.89,-2.08
1777399781223,2418125,-0.69,-0.56,-0.36,0.55,-1.22,-1.22
1777399781223,2418145,-0.70,-0.56,-0.35,0.12,-1.04,-0.12
1777399781223,2418155,-0.70,-0.57,-0.35,0.00,-1.22,-0.31
1777399781223,2418165,-0.71,-0.57,-0.35,-0.06,-1.59,-0.73
1777399781224,2418175,-0.71,-0.57,-0.35,0.00,-2.26,-1.16
1777399781224,2418185,-0.71,-0.57,-0.35,-0.06,-3.17,-1.40
1777399781224,2418195,-0.72,-0.57,-0.35,-0.61,-3.97,-1.71
1777399781224,2418205,-0.72,-0.57,-0.36,-0.98,-4.27,-2.01
1777399781224,2418215,-0.72,-0.57,-0.36,-1.28,-3.97,-2.38
1777399781224,2418225,-0.72,-0.56,-0.36,-1.34,-3.42,-2.75
1777399781224,2418235,-0.72,-0.56,-0.36,-1.53,-3.05,-3.60
1777399781224,2418245,-0.72,-0.56,-0.36,-1.65,-3.48,-4.82
1777399781225,2418255,-0.72,-0.56,-0.36,-2.14,-4.03,-5.13
1777399781225,2418265,-0.71,-0.56,-0.37,-2.38,-4.88,-5.25
1777399781225,2418275,-0.71,-0.56,-0.37,-2.38,-5.19,-5.92
1777399781225,2418285,-0.71,-0.56,-0.37,-2.08,-5.31,-6.71
1777399781225,2418295,-0.70,-0.55,-0.37,-1.71,-5.43,-7.02
1777399781225,2418305,-0.70,-0.55,-0.37,-1.34,-5.74,-6.90
1777399781225,2418315,-0.70,-0.56,-0.37,-1.04,-6.10,-6.65
1777399781225,2418325,-0.70,-0.56,-0.37,-0.79,-6.35,-6.59
1777399781226,2418335,-0.70,-0.56,-0.37,-0.55,-6.71,-7.14
1777399781226,2418345,-0.71,-0.57,-0.37,-0.18,-7.32,-7.51
1777399781226,2418355,-0.71,-0.58,-0.37,0.18,-8.18,-7.87
1777399781226,2418365,-0.71,-0.58,-0.37,0.18,-8.85,-8.18
1777399781226,2418375,-0.71,-0.58,-0.37,0.00,-9.16,-8.67
1777399781226,2418385,-0.71,-0.58,-0.37,-0.31,-8.79,-8.85
1777399781226,2418395,-0.71,-0.58,-0.37,-0.43,-7.93,-8.97
1777399781226,2418405,-0.71,-0.58,-0.37,-0.55,-6.47,-8.91
1777399781226,2418415,-0.72,-0.57,-0.37,-0.49,-5.37,-7.87
1777399781227,2418435,-0.73,-0.56,-0.36,-1.04,-5.43,-8.73
1777399781227,2418455,-0.73,-0.57,-0.36,-0.55,-7.69,-10.01
1777399781227,2418475,-0.72,-0.58,-0.36,-0.49,-8.73,-9.95
1777399781227,2418495,-0.71,-0.57,-0.37,-1.40,-7.08,-9.70
1777399781227,2418505,-0.71,-0.57,-0.37,-1.77,-5.19,-9.22
1777399781227,2418515,-0.71,-0.56,-0.38,-2.20,-3.66,-8.42
1777399781227,2418525,-0.71,-0.56,-0.39,-2.62,-2.20,-7.69
1777399781227,2418535,-0.70,-0.55,-0.40,-2.81,-1.16,-7.69
1777399781228,2418545,-0.70,-0.55,-0.40,-3.05,-0.43,-8.30
1777399781228,2418555,-0.70,-0.54,-0.41,-3.72,0.24,-9.40
1777399781228,2418565,-0.69,-0.55,-0.42,-3.78,0.12,-9.09
1777399781228,2418575,-0.68,-0.54,-0.43,-2.87,0.00,-8.00
1777399781228,2418585,-0.68,-0.54,-0.44,-1.77,0.00,-7.26
1777399781228,2418595,-0.67,-0.54,-0.45,-0.43,0.00,-6.90
1777399781228,2418605,-0.66,-0.54,-0.46,1.28,-0.24,-5.98
1777399781228,2418615,-0.66,-0.54,-0.47,3.54,-0.61,-4.39
1777399781228,2418625,-0.67,-0.55,-0.47,6.41,-1.10,-2.69
1777399781229,2418635,-0.68,-0.55,-0.45,8.91,-1.77,-1.65
1777399781229,2418645,-0.69,-0.56,-0.43,10.56,-2.99,-1.34
1777399781229,2418655,-0.71,-0.56,-0.42,11.66,-4.88,-1.65
1777399781229,2418665,-0.72,-0.57,-0.40,12.45,-6.77,-2.32
1777399781229,2418675,-0.73,-0.57,-0.38,12.63,-8.36,-2.81
1777399781229,2418685,-0.73,-0.58,-0.37,12.57,-9.89,-3.11
1777399781229,2418695,-0.74,-0.58,-0.36,12.15,-10.74,-3.85
1777399781229,2418705,-0.74,-0.59,-0.34,11.41,-10.80,-4.58
1777399781230,2418715,-0.74,-0.59,-0.33,10.86,-10.50,-5.31
1777399781230,2418725,-0.73,-0.60,-0.32,9.70,-10.13,-5.80
1777399781230,2418735,-0.73,-0.60,-0.32,8.42,-9.28,-6.53
1777399781230,2418745,-0.72,-0.60,-0.31,7.08,-7.63,-7.69
1777399781230,2418755,-0.72,-0.60,-0.31,5.92,-5.74,-8.48
1777399781230,2418765,-0.71,-0.60,-0.31,4.46,-4.64,-8.36
1777399781230,2418785,-0.69,-0.60,-0.32,1.10,-1.77,-8.18
1777399781230,2418805,-0.69,-0.59,-0.34,0.31,0.98,-7.14
1777399781230,2418825,-0.70,-0.58,-0.36,-0.79,-0.31,-6.77
1777399781231,2418835,-0.70,-0.58,-0.37,-0.85,-1.59,-6.77
1777399781231,2418845,-0.70,-0.58,-0.38,-0.37,-2.08,-6.77
1777399781231,2418855,-0.69,-0.57,-0.39,0.37,-1.65,-7.26
1777399781231,2418865,-0.69,-0.57,-0.39,1.04,-0.85,-7.75
1777399781231,2418875,-0.69,-0.57,-0.39,1.59,-0.67,-7.45
1777399781231,2418885,-0.68,-0.57,-0.39,2.14,-0.92,-7.02
1777399781231,2418895,-0.67,-0.57,-0.39,2.62,-1.34,-7.14
1777399781231,2418905,-0.67,-0.57,-0.38,2.99,-2.14,-7.26
1777399781232,2418915,-0.67,-0.58,-0.38,3.66,-3.23,-6.71
1777399781232,2418925,-0.67,-0.58,-0.37,4.33,-4.33,-6.41
1777399781232,2418935,-0.67,-0.58,-0.37,4.70,-5.07,-6.71
1777399781232,2418945,-0.67,-0.58,-0.36,4.88,-5.43,-6.65
1777399781232,2418955,-0.67,-0.58,-0.36,5.00,-5.62,-6.23
1777399781232,2418965,-0.67,-0.59,-0.36,4.88,-5.43,-5.86
1777399781232,2418975,-0.67,-0.59,-0.36,4.64,-5.00,-5.68
1777399781232,2418985,-0.67,-0.59,-0.36,4.52,-5.25,-5.49
1777399781232,2418995,-0.66,-0.60,-0.36,4.27,-5.86,-5.19
1777399781233,2419005,-0.66,-0.60,-0.36,4.27,-6.47,-4.76
1777399781233,2419015,-0.67,-0.61,-0.36,4.64,-6.71,-4.58
1777399781233,2419025,-0.67,-0.61,-0.36,4.88,-6.77,-4.27
1777399781233,2419035,-0.68,-0.61,-0.35,4.70,-7.02,-4.15
1777399781233,2419045,-0.69,-0.62,-0.35,4.03,-7.39,-3.97
1777399781233,2419055,-0.69,-0.62,-0.35,3.42,-7.75,-3.97
1777399781233,2419065,-0.69,-0.62,-0.35,2.93,-8.30,-4.03
1777399781233,2419075,-0.69,-0.62,-0.36,2.44,-8.30,-3.97
1777399781233,2419085,-0.70,-0.62,-0.36,2.20,-7.69,-3.85
1777399781234,2419095,-0.71,-0.62,-0.35,2.14,-6.96,-4.21
1777399781234,2419105,-0.72,-0.62,-0.35,2.08,-7.02,-5.43
1777399781234,2419125,-0.73,-0.62,-0.35,0.18,-7.93,-6.53
1777399781234,2419145,-0.73,-0.61,-0.36,-1.40,-5.43,-6.53
1777399781234,2419165,-0.72,-0.60,-0.36,-2.56,-3.48,-6.84
1777399781234,2419185,-0.71,-0.61,-0.37,-3.48,-3.60,-8.24
1777399781234,2419195,-0.70,-0.61,-0.37,-3.66,-4.39,-8.91
1777399781234,2419205,-0.69,-0.61,-0.38,-2.87,-5.13,-8.42
1777399781234,2419215,-0.69,-0.60,-0.38,-2.20,-5.37,-7.75
1777399781235,2419225,-0.68,-0.59,-0.38,-2.69,-4.76,-7.69
1777399781235,2419235,-0.68,-0.58,-0.38,-3.60,-3.78,-7.51
1777399781235,2419245,-0.68,-0.58,-0.38,-4.27,-2.75,-6.90
1777399781235,2419255,-0.68,-0.58,-0.38,-4.64,-2.14,-6.59
1777399781235,2419265,-0.68,-0.59,-0.38,-4.70,-1.89,-6.47
1777399781235,2419275,-0.68,-0.59,-0.38,-4.39,-2.50,-6.41
1777399781235,2419285,-0.68,-0.59,-0.39,-3.97,-3.42,-6.53
1777399781235,2419295,-0.68,-0.59,-0.39,-3.30,-4.21,-6.71
1777399781235,2419305,-0.68,-0.58,-0.39,-2.99,-4.70,-6.65
1777399781236,2419315,-0.68,-0.58,-0.39,-2.69,-4.76,-6.35
1777399781236,2419325,-0.69,-0.58,-0.39,-2.38,-4.09,-5.92
1777399781236,2419335,-0.69,-0.57,-0.38,-2.20,-3.36,-5.62
1777399781236,2419345,-0.69,-0.57,-0.38,-2.32,-3.05,-5.43
1777399781236,2419355,-0.69,-0.58,-0.38,-2.38,-3.30,-5.31
1777399781236,2419365,-0.68,-0.58,-0.38,-2.69,-3.91,-5.43
1777399781236,2419375,-0.68,-0.59,-0.38,-2.56,-4.82,-5.80
1777399781236,2419385,-0.67,-0.58,-0.39,-2.01,-5.37,-6.04
1777399781236,2419395,-0.67,-0.58,-0.38,-1.34,-5.55,-5.92
1777399781237,2419405,-0.67,-0.58,-0.38,-1.04,-5.55,-5.25
1777399781237,2419415,-0.68,-0.58,-0.38,-1.28,-5.43,-4.46
1777399781237,2419425,-0.68,-0.58,-0.39,-1.77,-4.88,-3.78
1777399781237,2419435,-0.69,-0.58,-0.39,-2.32,-4.15,-3.42
1777399781237,2419445,-0.70,-0.59,-0.39,-2.38,-3.85,-2.81
1777399781237,2419455,-0.70,-0.59,-0.39,-2.20,-3.91,-2.08
1777399781237,2419475,-0.73,-0.57,-0.40,-1.34,-3.42,-2.93
1777399781237,2419495,-0.74,-0.58,-0.40,-1.46,-2.01,-4.33
1777399781237,2419515,-0.73,-0.58,-0.41,-2.08,-1.28,-5.19
1777399781238,2419535,-0.71,-0.59,-0.43,-2.50,0.55,-5.74
1777399781241,2419545,-0.71,-0.59,-0.43,-2.38,2.14,-6.23
1777399781251,2419555,-0.70,-0.60,-0.43,-2.20,3.11,-6.29
1777399781261,2419565,-0.70,-0.60,-0.43,-2.08,3.05,-6.47
1777399781271,2419575,-0.70,-0.60,-0.43,-2.26,2.38,-7.14
1777399781281,2419585,-0.69,-0.61,-0.43,-2.69,1.40,-7.87
1777399781291,2419595,-0.67,-0.62,-0.43,-3.54,0.85,-9.09
1777399781301,2419605,-0.66,-0.62,-0.43,-4.46,1.10,-10.25
1777399781311,2419615,-0.66,-0.64,-0.43,-5.31,1.77,-10.80
1777399781321,2419625,-0.65,-0.63,-0.43,-6.53,2.75,-12.39
1777399781331,2419635,-0.64,-0.64,-0.43,-6.90,3.54,-12.33
1777399781341,2419645,-0.64,-0.64,-0.42,-6.65,3.97,-10.93
1777399781351,2419655,-0.64,-0.63,-0.41,-7.14,3.60,-9.77
1777399781361,2419665,-0.64,-0.63,-0.40,-8.12,2.81,-9.58
1777399781371,2419675,-0.65,-0.63,-0.41,-8.73,1.89,-9.46
1777399781381,2419685,-0.65,-0.63,-0.41,-8.30,1.28,-9.77
1777399781391,2419695,-0.64,-0.62,-0.40,-7.87,1.16,-10.99
1777399781401,2419705,-0.64,-0.62,-0.40,-8.24,0.79,-11.84
1777399781411,2419715,-0.64,-0.61,-0.40,-8.30,0.37,-12.63
1777399781421,2419725,-0.64,-0.59,-0.40,-8.00,0.37,-13.24
1777399781431,2419735,-0.64,-0.58,-0.41,-8.06,0.79,-13.55
1777399781441,2419745,-0.66,-0.57,-0.39,-8.85,0.85,-13.37
1777399781451,2419755,-0.66,-0.58,-0.38,-10.50,0.31,-12.15
1777399781461,2419765,-0.66,-0.58,-0.40,-13.24,-1.22,-11.54
1777399781471,2419775,-0.67,-0.59,-0.42,-14.47,-1.95,-11.35
1777399781481,2419785,-0.66,-0.59,-0.45,-13.12,-1.22,-12.45
1777399781491,2419795,-0.66,-0.57,-0.44,-9.95,0.37,-13.85
1777399781513,2419815,-0.65,-0.60,-0.44,-7.26,-1.10,-15.08
1777399781531,2419835,-0.64,-0.62,-0.47,-5.92,-1.95,-16.48
1777399781551,2419855,-0.67,-0.64,-0.45,-4.46,-2.26,-15.87
1777399781571,2419875,-0.69,-0.65,-0.45,-4.58,-3.36,-15.20
1777399781581,2419885,-0.70,-0.65,-0.46,-4.21,-2.56,-14.89
1777399781591,2419895,-0.71,-0.65,-0.46,-3.23,-0.37,-15.32
1777399781601,2419905,-0.73,-0.63,-0.45,-2.08,2.38,-16.91
1777399781611,2419915,-0.73,-0.62,-0.44,-1.65,4.70,-18.68
1777399781621,2419925,-0.74,-0.62,-0.44,-2.26,6.16,-20.02
1777399781631,2419935,-0.74,-0.62,-0.44,-2.62,7.20,-21.18
1777399781641,2419945,-0.72,-0.62,-0.46,-2.44,7.57,-22.09
1777399781651,2419955,-0.71,-0.60,-0.47,-1.53,7.87,-22.28
1777399781661,2419965,-0.69,-0.59,-0.47,-0.67,8.61,-21.67
1777399781671,2419975,-0.67,-0.58,-0.47,-0.98,9.52,-21.00
1777399781681,2419985,-0.66,-0.57,-0.47,-2.69,10.07,-20.20
1777399781691,2419995,-0.65,-0.58,-0.48,-4.21,10.44,-19.96
1777399781701,2420005,-0.64,-0.57,-0.50,-4.21,10.56,-20.69
1777399781711,2420015,-0.62,-0.58,-0.51,-2.93,10.01,-21.30
1777399781721,2420025,-0.60,-0.57,-0.51,-0.61,9.64,-22.22
1777399781731,2420035,-0.58,-0.57,-0.51,1.89,9.16,-22.46
1777399781741,2420045,-0.56,-0.56,-0.49,2.87,7.87,-21.48
1777399781751,2420055,-0.53,-0.56,-0.49,2.56,5.98,-19.59
1777399781761,2420065,-0.53,-0.55,-0.50,1.65,4.39,-17.64
1777399781771,2420075,-0.51,-0.56,-0.51,1.40,3.72,-15.69
1777399781781,2420085,-0.50,-0.56,-0.51,1.95,3.60,-13.43
1777399781791,2420095,-0.49,-0.55,-0.50,2.20,3.72,-11.17
1777399781801,2420105,-0.50,-0.53,-0.50,1.28,3.36,-8.48
1777399781811,2420115,-0.50,-0.56,-0.51,-0.12,2.08,-6.41
1777399781821,2420125,-0.51,-0.55,-0.52,-1.04,0.55,-6.29
1777399781831,2420135,-0.50,-0.55,-0.53,-1.46,-0.79,-6.35
1777399781841,2420145,-0.50,-0.54,-0.54,-1.46,-1.83,-5.49
1777399781861,2420165,-0.49,-0.53,-0.54,-1.65,-2.32,-1.16
1777399781881,2420185,-0.52,-0.54,-0.54,0.18,-2.44,1.59
1777399781901,2420205,-0.55,-0.55,-0.52,1.59,-4.09,2.38
1777399781921,2420225,-0.57,-0.54,-0.51,-0.18,-7.14,1.53
1777399781931,2420235,-0.56,-0.55,-0.53,-1.59,-8.06,0.73
1777399781941,2420245,-0.56,-0.56,-0.53,-1.34,-7.51,-0.55
1777399781951,2420255,-0.56,-0.57,-0.53,0.00,-6.77,-0.92
1777399781961,2420265,-0.56,-0.57,-0.51,1.40,-6.96,-0.37
1777399781971,2420275,-0.56,-0.57,-0.50,2.08,-8.36,0.18
1777399781981,2420285,-0.58,-0.58,-0.50,1.89,-9.58,0.31
1777399781991,2420295,-0.57,-0.58,-0.50,2.01,-9.89,-0.37
1777399782001,2420305,-0.57,-0.59,-0.49,1.89,-9.58,-0.37
1777399782011,2420315,-0.58,-0.60,-0.49,1.28,-9.58,-0.61
1777399782021,2420325,-0.59,-0.60,-0.48,1.65,-10.50,-0.79
1777399782031,2420335,-0.59,-0.61,-0.48,2.50,-11.78,-1.28
1777399782041,2420345,-0.60,-0.62,-0.48,3.72,-12.45,-2.14
1777399782051,2420355,-0.60,-0.61,-0.46,5.31,-12.33,-2.50
1777399782061,2420365,-0.60,-0.61,-0.45,6.16,-12.45,-1.83
1777399782071,2420375,-0.61,-0.60,-0.44,6.04,-12.76,-0.67
1777399782081,2420385,-0.62,-0.59,-0.44,4.94,-13.24,0.43
1777399782091,2420395,-0.63,-0.60,-0.45,3.54,-13.00,0.67
1777399782101,2420405,-0.64,-0.60,-0.45,2.50,-11.35,-0.06
1777399782111,2420415,-0.66,-0.60,-0.45,2.01,-8.91,-0.61
1777399782121,2420425,-0.67,-0.61,-0.45,2.38,-7.32,-1.77
1777399782131,2420435,-0.67,-0.60,-0.45,2.62,-7.39,-3.91
1777399782141,2420445,-0.67,-0.60,-0.46,2.56,-8.06,-5.92
1777399782151,2420455,-0.65,-0.60,-0.47,2.69,-8.30,-7.51
1777399782161,2420465,-0.63,-0.59,-0.49,2.50,-7.69,-8.30
