host_time_ms,arduino_time_ms,ax,ay,az,gx,gy,gz
1777399813072,2448118,0.01,-0.01,1.00,2.26,-4.70,-5.00
1777399813073,2448128,0.01,-0.01,1.00,2.32,-4.58,-4.70
1777399813073,2448138,0.01,-0.01,1.00,2.44,-4.64,-4.39
1777399813073,2448148,0.01,-0.01,1.00,2.38,-4.76,-4.58
1777399813074,2448158,0.01,-0.01,1.00,2.32,-4.58,-4.70
1777399813074,2448168,0.01,-0.01,1.00,2.32,-4.70,-4.52
1777399813074,2448178,0.01,-0.01,1.00,2.50,-4.70,-4.33
1777399813074,2448188,0.01,-0.00,1.00,2.32,-4.70,-4.64
1777399813075,2448198,0.01,-0.01,1.00,2.14,-4.64,-4.94
1777399813075,2448208,0.01,-0.01,1.00,2.32,-4.70,-4.64
1777399813075,2448218,0.01,-0.01,1.00,2.38,-4.82,-4.33
1777399813076,2448228,0.01,-0.01,1.00,2.38,-4.76,-4.39
1777399813076,2448238,0.01,-0.01,1.00,2.38,-4.70,-4.46
1777399813077,2448248,0.01,-0.01,1.00,2.26,-4.70,-4.64
1777399813077,2448258,0.01,-0.01,1.00,2.14,-4.70,-4.88
1777399813077,2448268,0.01,-0.01,1.00,2.26,-4.70,-4.76
1777399813077,2448278,0.01,-0.01,1.00,2.38,-4.76,-4.46
1777399813078,2448288,0.01,-0.01,1.00,2.56,-4.70,-4.27
1777399813078,2448298,0.01,-0.01,1.00,2.56,-4.76,-4.09
1777399813078,2448308,0.01,-0.01,1.00,2.56,-4.70,-4.03
1777399813078,2448318,0.01,-0.01,1.00,2.62,-4.70,-4.09
1777399813079,2448328,0.01,-0.01,1.00,2.62,-4.64,-3.97
1777399813079,2448338,0.01,-0.01,1.00,2.62,-4.70,-3.91
1777399813079,2448348,0.01,-0.01,1.00,2.44,-4.70,-4.39
1777399813079,2448358,0.01,-0.01,1.00,2.26,-4.64,-4.82
1777399813080,2448368,0.01,-0.01,1.00,2.50,-4.70,-3.91
1777399813080,2448388,0.01,-0.01,1.00,2.38,-4.70,-4.39
1777399813080,2448408,0.01,-0.01,1.00,2.38,-4.70,-4.58
1777399813080,2448428,0.01,-0.01,1.00,2.26,-4.70,-4.94
1777399813080,2448448,0.01,-0.01,1.00,2.75,-4.70,-3.97
1777399813081,2448458,0.01,-0.01,1.00,2.62,-4.88,-4.27
1777399813081,2448468,0.01,-0.01,1.00,2.56,-4.76,-4.58
1777399813081,2448478,0.01,-0.01,1.00,2.56,-4.70,-4.39
1777399813081,2448488,0.01,-0.00,1.00,2.62,-4.82,-4.39
1777399813082,2448498,0.01,-0.01,1.00,2.62,-4.70,-4.15
1777399813082,2448508,0.01,-0.01,1.00,2.69,-4.76,-4.03
1777399813082,2448518,0.01,-0.00,1.00,2.56,-4.70,-4.33
1777399813082,2448528,0.01,-0.01,1.00,2.44,-4.76,-4.88
1777399813083,2448538,0.01,-0.00,1.00,2.44,-4.82,-4.88
1777399813083,2448548,0.01,-0.01,1.00,2.38,-4.76,-4.88
1777399813083,2448558,0.01,-0.01,1.00,2.38,-4.76,-4.82
1777399813083,2448568,0.01,-0.01,1.00,2.44,-4.70,-4.82
1777399813084,2448578,0.01,-0.01,1.00,2.50,-4.70,-4.70
1777399813084,2448588,0.01,-0.01,1.00,2.50,-4.70,-4.33
1777399813084,2448598,0.01,-0.00,1.00,2.44,-4.70,-4.58
1777399813084,2448608,0.01,-0.00,1.00,2.38,-4.64,-4.76
1777399813085,2448618,0.01,0.00,0.99,2.32,-4.70,-4.88
1777399813085,2448628,0.01,-0.00,0.99,2.38,-4.39,-5.07
1777399813085,2448638,-0.02,-0.06,1.00,2.44,-3.97,-6.41
1777399813085,2448648,-0.02,-0.06,1.00,2.44,-4.21,-16.66
1777399813085,2448658,-0.03,-0.04,1.00,2.32,-3.91,-32.41
1777399813086,2448668,-0.02,0.01,1.00,1.65,-3.60,-42.72
1777399813086,2448678,-0.00,0.01,1.00,1.22,-3.30,-46.57
1777399813086,2448688,0.02,0.01,1.00,1.22,-3.30,-45.35
1777399813086,2448698,0.05,0.04,1.00,1.53,-3.72,-40.59
1777399813086,2448708,0.06,0.04,1.00,1.89,-4.27,-14.53
1777399813087,2448728,0.03,0.02,1.00,2.93,-5.25,3.11
1777399813087,2448748,0.03,-0.00,0.99,4.33,-6.47,14.71
1777399813087,2448768,0.01,0.02,1.01,2.44,-4.70,1.71
1777399813087,2448788,0.02,0.00,0.99,2.08,-5.37,3.30
1777399813087,2448798,0.00,-0.02,1.00,2.56,-4.76,5.07
1777399813087,2448808,-0.02,-0.04,1.00,2.62,-4.52,2.50
1777399813088,2448818,0.01,-0.01,1.00,2.50,-4.76,-2.99
1777399813088,2448828,0.01,-0.01,1.00,2.26,-4.94,-4.52
1777399813088,2448838,0.01,-0.01,1.00,2.32,-4.76,-4.52
1777399813088,2448848,0.01,-0.01,1.00,2.50,-4.52,-4.52
1777399813088,2448858,0.01,-0.01,1.00,2.38,-4.64,-4.58
1777399813089,2448868,0.01,-0.01,1.00,2.44,-4.70,-4.33
1777399813089,2448878,0.01,-0.01,1.00,2.69,-4.70,-3.97
1777399813089,2448888,0.01,-0.00,1.00,2.62,-4.70,-3.91
1777399813089,2448898,0.01,-0.01,1.00,2.62,-4.70,-3.91
1777399813089,2448908,0.01,-0.01,1.00,2.56,-4.58,-4.09
1777399813090,2448918,0.01,-0.01,1.00,2.38,-4.70,-4.46
1777399813090,2448928,0.01,-0.01,1.00,2.38,-4.76,-4.64
1777399813090,2448938,0.01,-0.01,1.00,2.32,-4.58,-4.64
1777399813090,2448948,0.01,-0.01,1.00,2.50,-4.76,-4.27
1777399813090,2448958,0.01,-0.01,1.00,2.69,-4.82,-3.91
1777399813091,2448968,0.01,-0.01,1.00,2.62,-4.76,-3.91
1777399813091,2448978,0.01,-0.01,1.00,2.56,-4.76,-3.97
1777399813091,2448988,0.01,-0.00,0.99,2.56,-4.76,-3.85
1777399813091,2448998,0.01,-0.01,1.00,2.62,-4.76,-3.85
1777399813091,2449008,0.01,-0.01,1.00,2.56,-4.76,-3.91
1777399813092,2449018,0.01,-0.01,1.00,2.56,-4.70,-3.97
1777399813092,2449028,0.01,-0.01,1.00,2.44,-4.70,-4.33
1777399813092,2449038,0.01,-0.00,1.00,2.32,-4.70,-4.82
1777399813092,2449048,0.01,-0.00,1.00,2.20,-4.76,-4.82
1777399813092,2449058,0.01,-0.01,1.00,2.32,-4.76,-4.46
1777399813092,2449078,0.01,-0.01,1.00,2.56,-4.70,-4.03
1777399813093,2449098,0.01,-0.00,1.00,2.44,-4.70,-4.33
1777399813093,2449118,0.01,-0.01,0.99,2.38,-4.58,-4.70
1777399813093,2449138,0.01,-0.00,0.99,2.38,-4.64,-4.64
1777399813093,2449148,0.01,-0.01,1.00,2.44,-4.76,-4.46
1777399813093,2449158,0.01,-0.01,1.00,2.44,-4.70,-4.52
1777399813094,2449168,0.01,-0.01,0.99,2.38,-4.70,-4.52
1777399813094,2449178,0.01,-0.01,1.00,2.38,-4.70,-4.64
1777399813094,2449188,0.01,-0.01,1.00,2.32,-4.58,-4.70
1777399813094,2449198,0.01,-0.01,1.00,2.38,-4.70,-4.76
1777399813094,2449208,0.01,-0.00,1.00,2.32,-4.64,-4.52
1777399813094,2449218,0.01,-0.01,1.00,2.26,-4.64,-4.64
1777399813095,2449228,0.01,-0.00,1.00,2.26,-4.64,-4.94
1777399813095,2449238,0.01,-0.00,1.00,2.38,-4.70,-4.64
1777399813095,2449248,0.01,-0.01,1.00,2.50,-4.76,-4.21
1777399813095,2449258,0.01,-0.01,0.99,2.50,-4.70,-4.09
1777399813095,2449268,0.01,-0.01,1.01,2.56,-4.76,-3.91
1777399813095,2449278,0.01,-0.01,1.00,2.56,-4.64,-4.09
1777399813096,2449288,0.01,-0.01,1.00,2.50,-4.64,-4.21
1777399813096,2449298,0.01,-0.01,1.00,2.50,-4.76,-4.21
1777399813096,2449308,0.01,-0.00,1.00,2.50,-4.76,-4.27
1777399813096,2449318,0.01,-0.01,1.00,2.50,-4.70,-4.21
1777399813096,2449328,0.01,-0.01,1.00,2.44,-4.70,-4.27
1777399813096,2449338,0.01,-0.00,1.00,2.50,-4.64,-4.33
1777399813097,2449348,0.01,-0.01,1.00,2.44,-4.70,-4.46
1777399813097,2449358,0.01,-0.01,1.00,2.32,-4.70,-4.64
1777399813097,2449368,0.01,-0.01,1.00,2.20,-4.64,-4.94
1777399813097,2449378,0.01,-0.01,1.00,2.20,-4.58,-4.76
1777399813098,2449388,0.01,-0.01,1.00,2.38,-4.64,-4.64
1777399813098,2449398,0.01,-0.01,1.00,2.56,-4.76,-4.27
1777399813098,2449418,0.01,-0.01,1.00,2.50,-4.82,-4.21
1777399813098,2449438,0.01,-0.01,1.00,2.38,-4.70,-4.33
1777399813098,2449458,0.01,-0.01,1.00,2.44,-4.70,-4.46
1777399813098,2449478,0.01,-0.01,1.00,2.44,-4.70,-4.39
1777399813099,2449488,0.01,-0.01,1.00,2.44,-4.76,-4.46
1777399813099,2449498,0.01,-0.01,1.00,2.38,-4.70,-4.33
1777399813099,2449508,0.01,-0.00,1.00,2.38,-4.64,-4.39
1777399813099,2449518,0.01,-0.01,1.00,2.38,-4.64,-4.46
1777399813099,2449528,0.01,-0.01,1.00,2.44,-4.76,-4.21
1777399813099,2449538,0.01,-0.01,1.00,2.62,-4.82,-3.78
1777399813100,2449548,0.01,-0.01,1.00,2.56,-4.76,-3.97
1777399813100,2449558,0.01,-0.01,1.00,2.50,-4.70,-4.15
1777399813100,2449568,0.01,-0.01,1.00,2.44,-4.70,-4.33
1777399813100,2449578,0.01,-0.01,1.00,2.44,-4.64,-4.52
1777399813100,2449588,0.01,-0.01,1.00,2.38,-4.70,-4.64
1777399813100,2449598,0.01,-0.01,1.00,2.26,-4.70,-4.82
1777399813101,2449608,0.01,-0.01,1.00,2.20,-4.70,-4.94
1777399813101,2449618,0.01,-0.01,1.00,2.14,-4.70,-5.00
1777399813101,2449628,0.01,-0.00,1.00,2.26,-4.70,-5.00
1777399813101,2449638,0.01,-0.01,1.00,2.20,-4.64,-5.00
1777399813101,2449648,0.01,-0.01,1.00,2.26,-4.70,-4.76
1777399813101,2449658,0.01,-0.00,1.00,2.38,-4.76,-4.46
1777399813101,2449668,0.01,-0.01,1.00,2.44,-4.70,-4.15
1777399813102,2449678,0.01,-0.01,1.00,2.62,-4.70,-3.85
1777399813102,2449688,0.01,-0.01,1.00,2.44,-4.70,-4.39
1777399813102,2449698,0.01,-0.00,0.99,2.20,-4.70,-5.07
1777399813102,2449708,0.01,-0.01,1.01,2.32,-4.76,-4.70
1777399813102,2449718,0.01,-0.00,1.00,2.50,-4.76,-4.33
1777399813102,2449728,0.01,-0.01,1.00,2.32,-4.76,-4.64
1777399813103,2449738,0.01,-0.01,1.00,2.20,-4.58,-4.94
1777399813103,2449748,0.01,-0.01,1.00,2.32,-4.70,-4.33
1777399813103,2449768,0.01,-0.01,0.99,2.62,-4.76,-4.03
1777399813103,2449788,0.01,-0.01,1.00,2.56,-4.70,-3.97
1777399813103,2449808,0.01,-0.01,0.99,2.56,-4.82,-4.09
1777399813103,2449828,0.01,-0.00,0.99,2.32,-4.70,-4.76
1777399813103,2449838,0.01,-0.01,1.01,2.26,-4.76,-4.82
1777399813104,2449848,0.01,-0.01,1.00,2.26,-4.76,-4.82
1777399813104,2449858,0.01,-0.01,1.00,2.26,-4.64,-4.82
1777399813104,2449868,0.01,-0.00,0.99,2.26,-4.64,-5.00
1777399813104,2449878,0.01,-0.01,1.01,2.26,-4.76,-4.88
1777399813104,2449888,0.01,-0.00,1.00,2.32,-4.70,-4.76
1777399813104,2449898,0.01,-0.00,1.00,2.20,-4.64,-4.64
1777399813105,2449908,0.01,-0.01,1.00,2.32,-4.70,-4.52
1777399813105,2449918,0.01,-0.01,1.00,2.44,-4.82,-4.58
1777399813105,2449928,0.01,-0.01,1.00,2.44,-4.70,-4.52
1777399813105,2449938,0.01,-0.01,1.00,2.44,-4.82,-4.46
1777399813105,2449948,0.01,-0.00,1.00,2.44,-4.76,-4.46
1777399813105,2449958,0.01,-0.01,1.00,2.50,-4.76,-4.46
1777399813105,2449968,0.01,-0.01,1.00,2.50,-4.76,-4.15
1777399813106,2449978,0.01,-0.01,1.01,2.44,-4.82,-4.27
1777399813106,2449988,0.01,-0.01,1.00,2.38,-4.70,-4.52
1777399813106,2449998,0.01,-0.01,1.00,2.44,-4.70,-4.39
1777399813106,2450008,0.01,-0.01,1.00,2.44,-4.76,-4.33
1777399813106,2450018,0.01,-0.01,1.00,2.38,-4.70,-4.46
1777399813106,2450028,0.01,-0.01,1.00,2.32,-4.70,-4.64
1777399813106,2450038,0.01,-0.01,1.00,2.32,-4.64,-4.76
1777399813107,2450048,0.01,-0.00,1.00,2.26,-4.76,-4.82
1777399813107,2450058,0.01,-0.01,1.00,2.38,-4.76,-4.58
1777399813107,2450068,0.01,-0.01,1.00,2.44,-4.70,-4.33
1777399813107,2450078,0.01,-0.01,1.00,2.44,-4.70,-4.39
1777399813107,2450088,0.01,-0.01,1.00,2.32,-4.70,-4.52
1777399813107,2450108,0.01,-0.01,1.00,2.56,-4.76,-4.03
1777399813108,2450128,0.01,-0.01,1.00,2.32,-4.76,-4.46
1777399813108,2450148,0.01,-0.01,1.00,2.38,-4.70,-4.39
1777399813108,2450168,0.01,-0.01,1.00,2.44,-4.76,-4.46
1777399813108,2450178,0.01,-0.01,1.00,2.26,-4.64,-4.94
1777399813108,2450188,0.01,-0.01,1.00,2.38,-4.64,-4.58
1777399813108,2450198,0.01,-0.01,1.00,2.56,-4.70,-4.15
1777399813108,2450208,0.01,-0.00,1.00,2.50,-4.76,-4.27
1777399813109,2450218,0.01,-0.00,1.00,2.32,-4.76,-4.33
1777399813109,2450228,0.01,-0.01,1.00,2.44,-4.76,-4.21
1777399813109,2450238,0.01,-0.01,1.00,2.50,-4.76,-4.09
1777399813109,2450248,0.01,-0.01,1.00,2.44,-4.76,-4.46
1777399813109,2450258,0.01,-0.01,1.00,2.26,-4.70,-4.94
1777399813109,2450268,0.01,-0.00,1.00,2.32,-4.70,-4.64
1777399813109,2450278,-0.06,0.09,1.16,2.56,-3.78,-4.64
1777399813110,2450288,0.04,-0.03,0.96,1.34,-5.07,-4.33
1777399813110,2450298,0.00,0.01,1.03,2.87,-4.15,-3.66
1777399813110,2450308,0.00,-0.02,1.00,-0.55,-1.83,-4.76
1777399813110,2450318,-0.07,-0.07,0.99,-1.34,-2.20,-8.85
1777399813110,2450328,-0.05,-0.02,1.00,1.04,-2.56,-25.33
1777399813110,2450338,-0.05,0.01,1.01,1.77,-2.81,-41.50
1777399813110,2450348,-0.06,-0.02,0.99,1.53,-3.23,-52.31
1777399813111,2450358,-0.05,-0.01,1.00,2.38,-3.54,-64.45
1777399813111,2450368,-0.03,0.03,1.00,2.99,-3.60,-73.49
1777399813111,2450378,-0.01,0.06,1.00,2.56,-3.36,-76.78
1777399813111,2450388,0.01,0.02,1.00,2.26,-3.78,-72.75
1777399813111,2450398,0.01,-0.00,1.00,2.75,-4.39,-66.71
1777399813111,2450408,0.02,0.01,1.01,3.42,-4.27,-60.36
1777399813112,2450418,0.01,0.01,1.01,3.11,-3.54,-51.33
1777399813112,2450428,0.00,-0.02,1.00,2.08,-2.93,-41.81
1777399813112,2450438,0.01,-0.01,1.00,2.56,-3.42,-33.63
1777399813112,2450458,0.05,-0.05,1.01,0.55,2.44,-36.32
1777399813112,2450478,0.36,-0.64,0.98,3.30,7.93,30.15
1777399813112,2450498,0.16,2.39,1.34,-9.83,17.64,98.14
1777399813112,2450518,0.35,0.18,1.04,-8.18,42.11,145.81
1777399813112,2450528,-0.25,0.14,1.02,9.28,58.47,35.16
1777399813113,2450538,0.17,0.50,1.08,-8.12,32.04,-4.52
1777399813113,2450548,0.37,0.30,1.23,-14.65,22.09,7.51
1777399813113,2450558,0.39,0.23,1.45,-28.08,32.53,39.49
1777399813113,2450568,0.06,-0.20,1.25,-56.58,23.13,46.88
1777399813113,2450578,-0.57,-0.70,1.12,-104.49,35.77,16.48
1777399813113,2450588,-0.90,-0.84,1.68,-137.51,79.59,-17.21
1777399813114,2450598,-0.86,-0.86,1.69,-126.95,86.61,-10.74
1777399813114,2450608,-0.68,-0.85,1.71,-99.61,82.21,25.15
1777399813114,2450618,-0.57,-0.68,1.70,-73.06,94.18,64.58
1777399813114,2450628,-0.42,-0.51,1.67,-56.09,126.95,100.95
1777399813114,2450638,-0.32,-0.29,1.51,-31.13,172.00,121.03
1777399813114,2450648,-0.38,-0.10,1.45,9.46,211.12,125.85
1777399813114,2450658,-0.38,-0.03,1.40,54.75,231.99,122.92
1777399813115,2450668,-0.27,0.07,1.07,93.02,241.82,113.16
1777399813115,2450678,-0.19,0.17,0.79,77.70,248.78,94.12
1777399813115,2450688,-0.21,0.26,0.64,3.60,240.60,62.50
1777399813115,2450698,-0.26,0.33,0.51,-72.51,211.43,38.15
1777399813115,2450708,-0.25,0.39,0.42,-126.89,169.74,32.71
1777399813115,2450718,-0.22,0.39,0.36,-174.74,124.27,40.28
1777399813115,2450728,-0.22,0.23,0.41,-210.39,90.03,45.35
1777399813116,2450738,-0.11,-0.16,0.63,-214.90,68.85,34.00
1777399813116,2450748,-0.31,-0.08,0.57,-176.88,55.36,2.99
1777399813116,2450758,-0.49,-0.00,0.53,-140.01,50.96,-18.25
1777399813116,2450768,-0.42,-0.07,0.52,-113.71,43.58,-25.15
1777399813116,2450778,0.11,-0.42,0.56,-81.91,41.20,-10.25
1777399813116,2450798,-0.52,-0.03,0.47,-44.62,181.03,45.29
1777399813116,2450818,-0.69,-0.01,0.73,-52.25,178.89,59.14
1777399813117,2450838,-0.57,-0.72,0.35,-67.08,139.59,67.44
1777399813117,2450858,-1.35,-1.60,1.42,-80.93,32.10,-52.31
1777399813117,2450868,-1.10,-0.69,0.88,-53.41,-54.50,-149.54
1777399813117,2450878,-0.82,0.07,0.70,-68.24,-108.40,-201.35
1777399813117,2450888,-0.47,0.17,0.58,-95.64,-118.23,-195.43
1777399813117,2450898,-0.24,0.05,-0.10,-99.98,-99.55,-156.86
1777399813117,2450908,-0.36,0.25,-0.63,-57.86,-30.46,-116.21
1777399813118,2450918,-0.58,0.14,-0.04,-35.03,69.09,-72.63
1777399813118,2450928,-0.77,-0.35,0.86,-41.93,111.69,-50.17
1777399813118,2450938,-0.74,-0.49,0.92,-44.43,91.13,-57.13
1777399813118,2450948,-0.62,-0.25,0.66,-54.38,64.39,-84.53
1777399813118,2450958,-0.57,0.06,0.59,-65.86,64.88,-104.19
1777399813118,2450968,-0.51,0.04,0.50,-73.18,83.80,-95.64
1777399813118,2450978,-0.55,-0.15,0.63,-84.90,111.57,-76.97
1777399813119,2450988,-0.59,-0.46,0.75,-99.06,131.35,-67.63
1777399813119,2450998,-0.60,-0.46,0.75,-114.62,135.44,-75.44
1777399813119,2451008,-0.54,-0.43,0.78,-124.88,131.04,-75.26
1777399813119,2451018,-0.45,-0.03,1.02,-142.21,120.42,-64.76
1777399813119,2451028,-0.42,-0.35,0.74,-202.39,100.40,-39.18
1777399813119,2451038,-0.58,-0.30,0.81,-234.99,89.78,-13.24
1777399813119,2451048,-0.63,-0.26,0.34,-250.98,57.01,14.95
1777399813120,2451058,-0.45,-0.68,-0.02,-238.77,46.88,45.84
1777399813120,2451068,-0.58,-0.83,-0.12,-232.60,60.00,39.12
1777399813120,2451078,-0.58,-0.86,-0.24,-210.08,74.77,21.61
1777399813120,2451088,-0.65,-0.83,-0.19,-180.85,98.69,6.23
1777399813120,2451098,-0.69,-0.75,-0.22,-152.53,111.02,-4.64
1777399813120,2451108,-0.66,-0.68,-0.23,-130.49,116.39,-6.35
1777399813120,2451118,-0.68,-0.64,-0.23,-120.12,116.46,-4.09
1777399813121,2451128,-0.68,-0.68,-0.26,-120.18,107.24,1.40
1777399813121,2451148,-0.65,-0.64,-0.39,-130.55,62.07,4.82
1777399813121,2451168,-0.61,-0.66,-0.60,-116.52,46.88,3.72
1777399813121,2451188,-0.59,-0.72,-0.63,-76.60,43.40,2.75
1777399813121,2451208,-0.65,-0.67,-0.51,-35.52,44.92,2.44
1777399813121,2451218,-0.66,-0.64,-0.46,-24.90,38.76,4.52
1777399813121,2451228,-0.69,-0.61,-0.44,-22.46,26.67,6.53
1777399813122,2451238,-0.71,-0.61,-0.44,-23.62,12.02,7.39
1777399813122,2451248,-0.71,-0.62,-0.46,-24.90,-2.08,6.35
1777399813122,2451258,-0.70,-0.63,-0.48,-24.17,-11.78,4.39
1777399813122,2451268,-0.69,-0.65,-0.48,-21.48,-16.85,3.60
1777399813122,2451278,-0.69,-0.67,-0.46,-17.70,-17.33,3.78
1777399813122,2451288,-0.71,-0.67,-0.44,-14.04,-14.53,3.91
1777399813122,2451298,-0.72,-0.66,-0.41,-11.41,-10.07,4.09
1777399813122,2451308,-0.75,-0.65,-0.39,-10.44,-6.04,3.72
1777399813123,2451318,-0.78,-0.65,-0.36,-10.80,-4.33,2.75
1777399813123,2451328,-0.79,-0.65,-0.35,-11.72,-5.07,1.22
1777399813123,2451338,-0.81,-0.65,-0.34,-13.06,-6.77,-0.85
1777399813123,2451348,-0.81,-0.64,-0.32,-14.71,-9.16,-3.23
1777399813123,2451358,-0.81,-0.65,-0.31,-16.91,-12.45,-4.70
1777399813123,2451368,-0.80,-0.64,-0.31,-19.35,-15.56,-4.76
1777399813123,2451378,-0.80,-0.63,-0.32,-21.79,-17.27,-4.27
1777399813124,2451388,-0.79,-0.63,-0.33,-23.74,-16.78,-4.64
1777399813124,2451398,-0.80,-0.62,-0.34,-24.96,-13.85,-6.35
1777399813124,2451408,-0.80,-0.61,-0.33,-24.72,-10.80,-8.42
1777399813124,2451418,-0.79,-0.60,-0.33,-23.62,-9.09,-10.01
1777399813124,2451428,-0.78,-0.59,-0.33,-22.95,-7.75,-11.90
1777399813134,2451438,-0.76,-0.58,-0.32,-23.01,-6.90,-13.12
1777399813144,2451448,-0.76,-0.56,-0.34,-23.25,-6.96,-13.37
1777399813154,2451458,-0.75,-0.55,-0.35,-23.50,-6.90,-15.01
1777399813164,2451468,-0.73,-0.55,-0.35,-23.74,-6.35,-17.52
1777399813174,2451478,-0.72,-0.54,-0.36,-23.13,-6.23,-20.39
1777399813194,2451498,-0.69,-0.54,-0.38,-20.75,-2.99,-20.08
1777399813214,2451518,-0.69,-0.52,-0.38,-20.57,-1.71,-17.15
1777399813234,2451538,-0.67,-0.52,-0.41,-19.65,-8.85,-15.32
1777399813244,2451548,-0.66,-0.53,-0.42,-17.27,-12.02,-15.56
1777399813254,2451558,-0.64,-0.54,-0.43,-12.76,-14.47,-15.75
1777399813264,2451568,-0.63,-0.55,-0.43,-6.35,-15.63,-15.87
1777399813274,2451578,-0.63,-0.54,-0.41,-0.12,-15.75,-15.38
1777399813284,2451588,-0.62,-0.54,-0.39,4.09,-17.09,-13.24
1777399813294,2451598,-0.62,-0.53,-0.38,5.80,-19.78,-10.13
1777399813304,2451608,-0.62,-0.53,-0.38,5.31,-21.55,-7.81
1777399813314,2451618,-0.61,-0.54,-0.39,4.33,-21.91,-6.71
1777399813324,2451628,-0.61,-0.55,-0.39,3.91,-21.12,-6.04
1777399813336,2451638,-0.61,-0.56,-0.38,4.64,-19.65,-4.76
1777399813344,2451648,-0.62,-0.56,-0.37,6.10,-18.25,-2.87
1777399813354,2451658,-0.63,-0.57,-0.36,7.69,-17.58,-1.65
1777399813364,2451668,-0.63,-0.59,-0.35,9.22,-18.01,-1.95
1777399813374,2451678,-0.63,-0.60,-0.34,11.23,-18.74,-2.44
1777399813384,2451688,-0.65,-0.59,-0.33,13.31,-19.47,-1.59
1777399813394,2451698,-0.67,-0.60,-0.32,14.83,-20.45,1.04
1777399813404,2451708,-0.69,-0.60,-0.31,15.69,-22.22,3.85
1777399813414,2451718,-0.72,-0.60,-0.29,15.50,-24.60,6.10
1777399813424,2451728,-0.74,-0.59,-0.28,15.01,-27.59,8.00
1777399813434,2451738,-0.76,-0.58,-0.28,13.98,-30.15,9.28
1777399813444,2451748,-0.79,-0.57,-0.27,12.63,-30.58,9.34
1777399813454,2451758,-0.82,-0.56,-0.27,11.84,-28.32,8.06
1777399813464,2451768,-0.83,-0.55,-0.26,11.90,-24.60,5.31
1777399813474,2451778,-0.83,-0.56,-0.27,12.39,-19.10,1.28
1777399813485,2451788,-0.83,-0.57,-0.25,12.82,-11.54,-2.93
1777399813494,2451798,-0.82,-0.58,-0.24,12.94,-4.09,-5.74
1777399813504,2451808,-0.81,-0.58,-0.23,13.00,1.83,-6.23
1777399813514,2451818,-0.80,-0.57,-0.22,12.08,5.07,-5.55
1777399813534,2451838,-0.76,-0.57,-0.24,3.85,5.00,-4.46
1777399813554,2451858,-0.74,-0.55,-0.30,-0.79,9.03,-2.93
1777399813574,2451878,-0.74,-0.56,-0.32,-3.11,13.37,-5.68
1777399813594,2451898,-0.72,-0.58,-0.34,-0.85,11.60,-9.09
1777399813604,2451908,-0.71,-0.58,-0.35,1.59,8.30,-10.01
1777399813614,2451918,-0.70,-0.57,-0.35,3.54,3.91,-9.40
1777399813624,2451928,-0.68,-0.56,-0.35,4.33,-0.73,-7.81
1777399813634,2451938,-0.68,-0.56,-0.36,3.97,-5.25,-5.74
1777399813644,2451948,-0.67,-0.56,-0.36,3.30,-9.22,-4.21
1777399813654,2451958,-0.68,-0.56,-0.36,2.75,-12.51,-2.93
1777399813664,2451968,-0.68,-0.56,-0.37,2.38,-15.20,-1.71
1777399813674,2451978,-0.69,-0.56,-0.37,2.01,-17.46,-0.61
1777399813684,2451988,-0.70,-0.56,-0.38,2.20,-19.96,0.00
1777399813694,2451998,-0.70,-0.57,-0.39,3.23,-21.91,-0.73
1777399813704,2452008,-0.70,-0.59,-0.39,5.43,-23.50,-1.77
1777399813714,2452018,-0.72,-0.60,-0.37,8.79,-26.25,-1.40
1777399813724,2452028,-0.72,-0.60,-0.34,12.21,-30.82,0.06
1777399813734,2452038,-0.72,-0.58,-0.33,14.04,-35.89,1.71
1777399813744,2452048,-0.71,-0.58,-0.32,13.24,-39.49,3.42
1777399813754,2452058,-0.71,-0.57,-0.31,10.93,-40.77,5.19
1777399813764,2452068,-0.71,-0.57,-0.31,9.09,-39.12,7.57
1777399813774,2452078,-0.73,-0.56,-0.31,8.42,-34.24,10.25
1777399813784,2452088,-0.74,-0.56,-0.29,7.81,-27.34,12.45
1777399813794,2452098,-0.75,-0.55,-0.29,6.96,-19.65,13.61
1777399813804,2452108,-0.78,-0.56,-0.27,6.04,-10.68,13.18
1777399813814,2452118,-0.80,-0.57,-0.26,6.23,-3.91,11.23
1777399813825,2452128,-0.79,-0.56,-0.25,7.75,-0.79,8.97
1777399813834,2452138,-0.79,-0.55,-0.25,8.54,1.22,8.48
1777399813844,2452148,-0.79,-0.55,-0.24,7.93,2.32,10.01
1777399813854,2452158,-0.78,-0.54,-0.25,6.59,1.83,11.84
1777399813864,2452168,-0.77,-0.53,-0.26,4.33,1.83,15.26
1777399813884,2452188,-0.74,-0.48,-0.25,-24.72,23.44,40.71
1777399813904,2452208,-0.80,-0.57,-0.26,-20.32,5.62,41.56
1777399813924,2452228,-0.78,-0.40,-0.32,-10.56,-13.55,27.59
1777399813934,2452238,-0.81,-0.42,-0.35,-13.12,-20.94,22.95
1777399813944,2452248,-0.81,-0.50,-0.36,-15.69,-24.72,20.02
1777399813954,2452258,-0.79,-0.55,-0.35,-13.85,-26.67,16.60
1777399813964,2452268,-0.78,-0.57,-0.35,-6.35,-28.44,14.22
1777399813974,2452278,-0.77,-0.55,-0.33,2.93,-28.69,12.63
1777399813984,2452288,-0.77,-0.51,-0.30,8.24,-26.92,13.12
1777399813994,2452298,-0.79,-0.50,-0.27,8.06,-25.21,15.44
1777399814004,2452308,-0.80,-0.49,-0.24,6.35,-24.90,17.40
1777399814014,2452318,-0.81,-0.46,-0.26,6.04,-26.37,19.59
1777399814024,2452328,-0.69,-0.42,-0.25,6.29,-28.93,22.58
1777399814034,2452338,-0.89,-0.47,-0.27,4.88,-31.37,32.17
1777399814044,2452348,-0.86,-0.49,-0.28,9.09,-29.54,27.34
1777399814054,2452358,-0.82,-0.46,-0.26,13.61,-26.00,19.23
1777399814064,2452368,-0.84,-0.43,-0.24,15.81,-23.44,13.31
1777399814074,2452378,-0.81,-0.46,-0.24,13.85,-24.23,10.31
1777399814084,2452388,-0.83,-0.48,-0.22,8.12,-23.25,6.04
1777399814094,2452398,-0.85,-0.48,-0.19,5.13,-25.09,1.59
1777399814104,2452408,-0.82,-0.47,-0.18,5.43,-29.17,0.79
1777399814114,2452418,-0.82,-0.46,-0.18,3.72,-30.88,2.69
1777399814124,2452428,-0.84,-0.45,-0.19,1.16,-31.98,3.91
1777399814134,2452438,-0.85,-0.45,-0.20,-0.24,-31.37,2.26
1777399814144,2452448,-0.86,-0.45,-0.21,1.40,-29.42,-1.22
1777399814154,2452458,-0.85,-0.42,-0.24,6.77,-23.86,-5.80
1777399814164,2452468,-0.85,-0.40,-0.21,10.44,-13.12,-7.69
1777399814174,2452478,-0.84,-0.42,-0.21,13.43,-5.49,-8.12
1777399814184,2452488,-0.85,-0.44,-0.19,15.87,0.12,-6.41
1777399814194,2452498,-0.85,-0.43,-0.16,16.72,5.19,-3.60
1777399814204,2452508,-0.85,-0.42,-0.15,14.59,8.36,15.38
1777399814224,2452528,-0.84,-0.40,-0.17,-4.88,8.30,6.59
1777399814244,2452548,-0.91,-0.40,-0.25,-8.67,8.42,-3.85
1777399814264,2452568,-0.91,-0.39,-0.26,-0.55,14.16,-13.24
1777399814284,2452588,-0.91,-0.41,-0.25,3.97,14.71,-14.22
1777399814294,2452598,-0.89,-0.41,-0.26,4.58,13.49,-14.16
1777399814304,2452608,-0.87,-0.42,-0.26,2.75,11.47,-13.49
1777399814314,2452618,-0.86,-0.43,-0.27,1.28,9.64,-11.47
1777399814324,2452628,-0.86,-0.44,-0.29,0.92,8.18,-10.38
1777399814334,2452638,-0.86,-0.46,-0.30,0.79,6.59,-11.47
1777399814344,2452648,-0.85,-0.47,-0.31,3.17,4.94,-14.77
1777399814354,2452658,-0.87,-0.46,-0.31,8.24,3.17,-18.31
1777399814364,2452668,-0.88,-0.44,-0.31,13.73,1.40,-23.01
1777399814374,2452678,-0.88,-0.44,-0.31,16.85,-0.43,-28.44
1777399814384,2452688,-0.87,-0.45,-0.29,18.37,-2.26,-32.65
1777399814394,2452698,-0.84,-0.46,-0.27,19.41,-4.27,-33.39
1777399814404,2452708,-0.83,-0.46,-0.25,18.92,-6.29,-31.01
1777399814414,2452718,-0.82,-0.45,-0.25,16.60,-8.18,-27.53
1777399814425,2452728,-0.82,-0.44,-0.25,12.70,-9.64,-24.72
1777399814434,2452738,-0.81,-0.46,-0.27,9.95,-10.19,-22.16
1777399814444,2452748,-0.81,-0.47,-0.29,11.29,-9.58,-19.96
1777399814454,2452758,-0.83,-0.45,-0.28,15.20,-8.97,-19.84
1777399814464,2452768,-0.83,-0.43,-0.26,18.31,-9.16,-21.48
1777399814474,2452778,-0.82,-0.43,-0.24,20.26,-10.56,-22.34
1777399814484,2452788,-0.75,-0.40,-0.17,19.59,-13.49,-21.85
1777399814494,2452798,-0.80,-0.43,-0.21,11.60,-18.13,-18.37
1777399814504,2452808,-0.80,-0.50,-0.24,6.10,-20.63,-15.32
1777399814514,2452818,-0.76,-0.53,-0.26,8.30,-19.35,-14.10
1777399814524,2452828,-0.74,-0.50,-0.24,13.12,-16.60,-12.33
1777399814534,2452838,-0.74,-0.47,-0.25,13.79,-14.65,-9.64
1777399814544,2452848,-0.76,-0.48,-0.25,13.73,-10.99,-8.36
1777399814554,2452858,-0.77,-0.49,-0.25,14.59,-6.84,-7.51
1777399814574,2452878,-0.81,-0.50,-0.24,20.87,-2.87,-7.57
1777399814594,2452898,-0.81,-0.53,-0.20,21.36,-11.84,-7.02
1777399814614,2452918,-0.78,-0.53,-0.22,18.07,-17.88,-6.04
1777399814634,2452938,-0.79,-0.56,-0.24,17.76,-15.87,-4.58
1777399814644,2452948,-0.79,-0.56,-0.24,19.41,-13.73,-6.10
1777399814654,2452958,-0.80,-0.56,-0.22,21.79,-11.60,-8.48
1777399814664,2452968,-0.79,-0.57,-0.20,23.74,-10.07,-9.16
1777399814674,2452978,-0.80,-0.58,-0.18,24.78,-9.95,-8.85
1777399814684,2452988,-0.82,-0.58,-0.16,25.82,-10.68,-9.16
1777399814694,2452998,-0.82,-0.59,-0.14,26.79,-12.02,-9.22
1777399814704,2453008,-0.81,-0.60,-0.12,26.67,-14.40,-9.46
1777399814714,2453018,-0.82,-0.60,-0.10,24.66,-16.42,-10.01
1777399814724,2453028,-0.82,-0.60,-0.08,22.83,-16.91,-9.16
1777399814734,2453038,-0.81,-0.59,-0.06,21.55,-15.32,-7.20
1777399814744,2453048,-0.81,-0.57,-0.04,19.90,-10.80,-6.29
1777399814754,2453058,-0.83,-0.55,-0.02,17.58,-2.38,-7.63
1777399814764,2453068,-0.84,-0.55,-0.00,14.40,6.35,-10.25
1777399814774,2453078,-0.85,-0.54,0.01,9.52,11.96,-13.98
1777399814784,2453088,-0.86,-0.54,0.02,2.99,13.24,-17.82
1777399814794,2453098,-0.83,-0.56,0.00,-1.10,11.84,-19.10
1777399814804,2453108,-0.81,-0.56,-0.02,-3.30,10.99,-19.29
1777399814814,2453118,-0.78,-0.55,-0.04,-5.55,12.33,-19.84
1777399814824,2453128,-0.76,-0.55,-0.06,-6.96,16.60,-19.84
1777399814834,2453138,-0.75,-0.54,-0.08,-8.18,23.07,-19.29
1777399814844,2453148,-0.76,-0.53,-0.09,-10.19,30.09,-19.41
1777399814854,2453158,-0.75,-0.53,-0.10,-12.94,35.64,-19.90
1777399814864,2453168,-0.76,-0.52,-0.12,-15.38,39.86,-20.26
1777399814874,2453178,-0.76,-0.52,-0.14,-18.62,41.75,-20.32
1777399814884,2453188,-0.76,-0.51,-0.18,-21.18,42.66,-20.87
1777399814894,2453198,-0.76,-0.51,-0.21,-24.05,43.46,-21.97
1777399814914,2453218,-0.75,-0.53,-0.27,-24.54,38.94,-22.58
1777399814934,2453238,-0.73,-0.55,-0.34,-18.31,33.14,-21.61
1777399814954,2453258,-0.74,-0.55,-0.36,-10.99,27.65,-17.46
1777399814974,2453278,-0.75,-0.55,-0.38,-6.47,22.83,-16.42
1777399814984,2453288,-0.75,-0.57,-0.38,-5.07,18.37,-15.50
1777399814994,2453298,-0.76,-0.57,-0.40,-3.78,11.78,-14.40
1777399815004,2453308,-0.76,-0.57,-0.42,-1.10,5.37,-14.22
1777399815014,2453318,-0.75,-0.58,-0.43,3.36,-0.06,-15.69
1777399815024,2453328,-0.74,-0.59,-0.43,8.06,-4.58,-17.52
1777399815034,2453338,-0.71,-0.61,-0.43,12.08,-9.09,-17.03
1777399815044,2453348,-0.69,-0.62,-0.41,15.93,-12.88,-14.47
1777399815054,2453358,-0.68,-0.63,-0.39,19.10,-15.32,-9.83
1777399815064,2453368,-0.69,-0.61,-0.36,19.96,-17.09,-4.70
1777399815074,2453378,-0.71,-0.59,-0.34,18.01,-19.29,-0.79
1777399815084,2453388,-0.74,-0.58,-0.34,15.75,-21.97,0.85
1777399815094,2453398,-0.76,-0.60,-0.33,15.56,-24.29,-0.61
1777399815104,2453408,-0.76,-0.60,-0.32,17.40,-26.37,-3.97
1777399815114,2453418,-0.76,-0.60,-0.31,20.14,-29.05,-5.74
1777399815124,2453428,-0.75,-0.61,-0.30,23.01,-32.35,-5.68
1777399815134,2453438,-0.73,-0.62,-0.28,24.29,-36.07,-5.25
1777399815144,2453448,-0.71,-0.64,-0.27,24.72,-39.61,-4.39
1777399815154,2453458,-0.70,-0.65,-0.26,25.27,-41.93,-2.38
1777399815164,2453468,-0.69,-0.65,-0.24,25.76,-43.03,1.10
1777399815174,2453478,-0.69,-0.64,-0.22,25.09,-42.97,5.07
1777399815184,2453488,-0.71,-0.62,-0.20,23.32,-41.87,8.61
1777399815194,2453498,-0.73,-0.60,-0.18,20.81,-40.04,11.23
1777399815204,2453508,-0.75,-0.59,-0.17,17.52,-38.33,11.17
1777399815214,2453518,-0.77,-0.59,-0.16,14.40,-37.11,8.18
1777399815224,2453528,-0.77,-0.60,-0.16,13.18,-36.07,4.70
1777399815234,2453538,-0.76,-0.61,-0.15,13.43,-34.73,1.71
1777399815244,2453548,-0.74,-0.62,-0.14,13.67,-17.21,-0.06
1777399815264,2453568,-0.73,-0.62,-0.11,9.70,-23.99,3.42
1777399815284,2453588,-0.75,-0.60,-0.07,4.33,-18.07,7.14
1777399815304,2453608,-0.78,-0.59,-0.07,-4.39,-14.95,10.25
1777399815324,2453628,-0.80,-0.58,-0.10,-10.31,-12.33,5.74
1777399815334,2453638,-0.79,-0.59,-0.12,-10.01,-8.48,1.28
1777399815344,2453648,-0.78,-0.59,-0.12,-8.30,-2.93,-2.87
1777399815354,2453658,-0.77,-0.60,-0.11,-7.45,2.44,-4.70
1777399815364,2453668,-0.76,-0.60,-0.10,-8.18,5.68,-3.42
1777399815374,2453678,-0.76,-0.59,-0.11,-10.31,7.20,-1.22
1777399815384,2453688,-0.76,-0.59,-0.12,-13.37,8.24,0.79
1777399815394,2453698,-0.78,-0.57,-0.13,-16.36,9.40,2.44
1777399815404,2453708,-0.80,-0.54,-0.15,-19.53,10.25,2.75
1777399815414,2453718,-0.81,-0.53,-0.18,-22.03,9.70,1.34
1777399815424,2453728,-0.81,-0.54,-0.22,-22.52,9.83,-2.08
1777399815434,2453738,-0.80,-0.56,-0.23,-19.29,11.84,-5.80
1777399815444,2453748,-0.78,-0.55,-0.24,-14.28,14.71,-7.93
1777399815454,2453758,-0.77,-0.54,-0.23,-10.62,17.64,-8.30
1777399815464,2453768,-0.77,-0.55,-0.22,-9.70,19.41,-8.24
1777399815474,2453778,-0.77,-0.55,-0.21,-10.56,19.84,-8.24
1777399815484,2453788,-0.78,-0.54,-0.22,-11.54,19.59,-7.81
1777399815494,2453798,-0.78,-0.53,-0.23,-12.76,18.62,-7.20
1777399815504,2453808,-0.80,-0.53,-0.24,-13.79,17.09,-6.84
1777399815514,2453818,-0.81,-0.53,-0.25,-13.79,15.32,-7.39
1777399815524,2453828,-0.81,-0.53,-0.28,-13.12,12.57,-9.89
1777399815534,2453838,-0.79,-0.53,-0.30,-11.47,10.19,-12.45
1777399815544,2453848,-0.76,-0.54,-0.31,-8.54,9.64,-13.18
1777399815554,2453858,-0.75,-0.55,-0.31,-6.16,10.31,-12.39
1777399815564,2453868,-0.75,-0.56,-0.31,-4.52,10.56,-10.56
1777399815574,2453878,-0.75,-0.56,-0.30,-3.66,10.13,-9.09
1777399815584,2453888,-0.75,-0.55,-0.30,-3.91,8.36,-7.93
1777399815604,2453908,-0.76,-0.55,-0.32,-2.75,0.12,-5.86
1777399815624,2453928,-0.77,-0.54,-0.34,2.08,-4.64,-7.45
1777399815644,2453948,-0.76,-0.56,-0.33,8.97,-9.34,-6.35
1777399815664,2453968,-0.77,-0.55,-0.30,10.25,-15.20,-5.19
1777399815674,2453978,-0.77,-0.55,-0.29,9.83,-18.25,-5.25
1777399815684,2453988,-0.77,-0.55,-0.29,9.95,-21.36,-5.25
1777399815694,2453998,-0.77,-0.55,-0.29,10.93,-24.11,-5.68
1777399815704,2454008,-0.76,-0.55,-0.29,12.94,-25.21,-6.23
1777399815714,2454018,-0.75,-0.56,-0.27,15.14,-24.23,-6.47
1777399815724,2454028,-0.75,-0.56,-0.26,16.60,-21.97,-6.35
1777399815734,2454038,-0.75,-0.55,-0.25,17.03,-19.84,-5.80
1777399815744,2454048,-0.75,-0.56,-0.23,16.54,-18.19,-5.49
1777399815754,2454058,-0.76,-0.57,-0.22,15.56,-17.21,-5.07
1777399815764,2454068,-0.76,-0.58,-0.22,15.32,-18.01,-4.88
1777399815774,2454078,-0.77,-0.58,-0.21,15.69,-20.26,-5.13
1777399815784,2454088,-0.77,-0.58,-0.20,16.72,-22.89,-5.00
1777399815794,2454098,-0.77,-0.57,-0.20,17.15,-25.39,-4.46
1777399815804,2454108,-0.77,-0.57,-0.21,16.91,-27.04,-5.00
1777399815814,2454118,-0.76,-0.58,-0.22,17.46,-25.76,-6.47
1777399815824,2454128,-0.76,-0.60,-0.21,19.47,-21.85,-7.39
1777399815834,2454138,-0.75,-0.61,-0.18,21.12,-17.46,-7.45
1777399815844,2454148,-0.76,-0.61,-0.15,21.24,-14.16,-6.41
1777399815854,2454158,-0.77,-0.61,-0.12,19.23,-13.12,-4.82
1777399815864,2454168,-0.78,-0.60,-0.11,15.38,-14.53,-3.72
1777399815874,2454178,-0.79,-0.59,-0.12,10.86,-17.52,-3.60
1777399815884,2454188,-0.79,-0.60,-0.12,7.75,-19.65,-4.58
1777399815894,2454198,-0.78,-0.60,-0.13,6.65,-20.20,-5.62
1777399815904,2454208,-0.77,-0.60,-0.14,6.96,-18.74,-6.47
1777399815914,2454218,-0.75,-0.61,-0.13,7.02,-15.32,-6.71
1777399815924,2454228,-0.75,-0.60,-0.11,6.23,-10.86,-6.23
1777399815934,2454238,-0.76,-0.59,-0.11,4.39,-6.41,-4.82
1777399815954,2454258,-0.77,-0.60,-0.11,-3.23,1.04,-4.15
1777399815974,2454278,-0.76,-0.58,-0.14,-7.93,4.15,-4.21
1777399815994,2454298,-0.76,-0.58,-0.18,-8.36,11.11,-7.87
1777399816014,2454318,-0.78,-0.57,-0.18,-7.26,19.29,-8.42
1777399816024,2454328,-0.78,-0.57,-0.18,-8.24,20.57,-8.79
1777399816034,2454338,-0.78,-0.57,-0.20,-10.31,19.53,-8.73
1777399816044,2454348,-0.78,-0.56,-0.22,-11.60,17.46,-7.87
1777399816054,2454358,-0.78,-0.57,-0.24,-11.17,15.56,-7.69
1777399816064,2454368,-0.77,-0.57,-0.26,-9.77,14.28,-8.73
1777399816074,2454378,-0.77,-0.56,-0.28,-7.63,13.18,-9.58
