host_time_ms,arduino_time_ms,ax,ay,az,gx,gy,gz
1777399792776,2425595,-0.67,-0.54,-0.47,-2.75,-5.19,-6.10
1777399792776,2425605,-0.67,-0.54,-0.47,-2.44,-4.27,-5.74
1777399792777,2425615,-0.67,-0.54,-0.48,-1.65,-4.09,-5.80
1777399792777,2425625,-0.67,-0.54,-0.49,-0.61,-4.52,-5.98
1777399792777,2425635,-0.67,-0.55,-0.49,0.24,-4.88,-5.92
1777399792778,2425645,-0.67,-0.54,-0.49,0.79,-5.19,-6.16
1777399792778,2425655,-0.67,-0.54,-0.49,1.04,-4.94,-6.41
1777399792779,2425665,-0.67,-0.54,-0.49,1.46,-4.09,-5.68
1777399792779,2425675,-0.67,-0.54,-0.50,1.59,-3.17,-4.70
1777399792780,2425695,-0.68,-0.55,-0.50,2.87,-2.14,-6.35
1777399792780,2425715,-0.66,-0.56,-0.50,4.46,-2.38,-7.45
1777399792781,2425735,-0.65,-0.56,-0.49,4.82,-2.81,-7.26
1777399792781,2425745,-0.64,-0.57,-0.49,4.76,-2.75,-7.08
1777399792781,2425755,-0.64,-0.57,-0.49,5.00,-2.44,-7.39
1777399792781,2425765,-0.64,-0.58,-0.48,5.07,-2.50,-7.69
1777399792782,2425775,-0.63,-0.58,-0.48,5.25,-2.75,-7.57
1777399792782,2425785,-0.63,-0.58,-0.47,5.19,-3.05,-7.02
1777399792782,2425795,-0.63,-0.59,-0.47,5.00,-3.36,-6.53
1777399792783,2425805,-0.64,-0.58,-0.47,4.58,-3.36,-6.41
1777399792783,2425815,-0.64,-0.58,-0.47,4.03,-2.99,-6.41
1777399792783,2425825,-0.64,-0.58,-0.47,3.48,-2.62,-6.29
1777399792784,2425835,-0.64,-0.59,-0.48,2.93,-2.38,-6.65
1777399792784,2425845,-0.64,-0.59,-0.47,2.75,-2.26,-7.51
1777399792784,2425855,-0.63,-0.58,-0.47,2.62,-2.69,-7.75
1777399792784,2425865,-0.63,-0.58,-0.48,2.32,-3.23,-8.18
1777399792784,2425875,-0.62,-0.58,-0.49,2.38,-3.48,-8.18
1777399792785,2425885,-0.62,-0.57,-0.48,2.81,-3.30,-7.93
1777399792785,2425895,-0.62,-0.57,-0.48,2.69,-3.30,-7.75
1777399792785,2425905,-0.62,-0.57,-0.48,2.32,-3.54,-7.51
1777399792786,2425915,-0.63,-0.57,-0.48,2.44,-3.97,-7.02
1777399792786,2425925,-0.63,-0.57,-0.48,2.99,-4.09,-6.90
1777399792786,2425935,-0.63,-0.57,-0.48,3.17,-4.15,-7.26
1777399792786,2425945,-0.63,-0.57,-0.48,3.23,-4.39,-7.45
1777399792787,2425955,-0.63,-0.57,-0.48,3.23,-4.64,-7.45
1777399792787,2425965,-0.63,-0.57,-0.49,3.17,-4.70,-7.20
1777399792787,2425975,-0.62,-0.56,-0.49,3.36,-4.46,-6.41
1777399792787,2425985,-0.62,-0.56,-0.49,3.36,-4.39,-5.55
1777399792788,2425995,-0.62,-0.56,-0.49,3.42,-4.03,-5.49
1777399792788,2426005,-0.62,-0.57,-0.49,3.85,-3.78,-5.37
1777399792788,2426015,-0.62,-0.57,-0.49,4.21,-4.03,-5.25
1777399792788,2426035,-0.62,-0.57,-0.48,5.37,-6.90,-4.39
1777399792788,2426055,-0.63,-0.57,-0.47,5.68,-6.71,-4.15
1777399792789,2426075,-0.64,-0.57,-0.47,6.10,-4.88,-2.93
1777399792789,2426095,-0.65,-0.58,-0.46,5.31,-4.70,-3.66
1777399792789,2426105,-0.64,-0.57,-0.46,5.07,-5.43,-3.48
1777399792789,2426115,-0.64,-0.57,-0.47,5.07,-5.98,-2.99
1777399792790,2426125,-0.64,-0.57,-0.47,5.07,-6.04,-3.11
1777399792790,2426135,-0.64,-0.57,-0.46,5.19,-6.16,-3.42
1777399792790,2426145,-0.64,-0.56,-0.46,5.25,-6.41,-3.30
1777399792790,2426155,-0.64,-0.56,-0.46,5.07,-6.77,-2.69
1777399792791,2426165,-0.64,-0.56,-0.47,4.76,-6.90,-2.08
1777399792791,2426175,-0.64,-0.57,-0.47,4.70,-6.47,-1.95
1777399792791,2426185,-0.64,-0.57,-0.47,4.76,-6.04,-1.83
1777399792791,2426195,-0.64,-0.57,-0.46,4.82,-6.16,-1.16
1777399792791,2426205,-0.65,-0.57,-0.47,4.82,-6.35,-0.61
1777399792792,2426215,-0.64,-0.57,-0.46,4.88,-6.10,-0.85
1777399792792,2426225,-0.64,-0.56,-0.47,4.46,-5.68,-1.46
1777399792792,2426235,-0.64,-0.55,-0.46,4.27,-5.00,-1.40
1777399792792,2426245,-0.66,-0.55,-0.46,4.39,-4.88,-0.49
1777399792793,2426255,-0.66,-0.54,-0.46,4.46,-4.94,-0.43
1777399792793,2426265,-0.66,-0.54,-0.47,4.46,-5.07,-0.73
1777399792793,2426275,-0.66,-0.53,-0.47,4.82,-5.07,-0.61
1777399792793,2426285,-0.66,-0.54,-0.48,5.55,-4.94,-0.18
1777399792793,2426295,-0.66,-0.54,-0.48,6.35,-4.76,-0.55
1777399792794,2426305,-0.65,-0.55,-0.48,7.26,-5.25,-1.46
1777399792794,2426315,-0.65,-0.55,-0.48,8.30,-6.35,-1.95
1777399792794,2426325,-0.65,-0.55,-0.48,9.40,-7.39,-1.71
1777399792794,2426335,-0.64,-0.55,-0.47,10.25,-8.36,-1.53
1777399792794,2426345,-0.64,-0.55,-0.47,10.44,-8.91,-1.89
1777399792795,2426355,-0.64,-0.55,-0.47,10.74,-8.79,-2.32
1777399792795,2426365,-0.64,-0.55,-0.46,10.93,-8.30,-1.71
1777399792795,2426385,-0.64,-0.56,-0.45,10.19,-10.56,-1.53
1777399792795,2426405,-0.63,-0.57,-0.47,10.38,-11.41,-2.69
1777399792795,2426425,-0.62,-0.57,-0.46,10.99,-10.13,-1.34
1777399792796,2426445,-0.62,-0.58,-0.45,10.56,-10.99,-0.73
1777399792796,2426455,-0.61,-0.59,-0.45,10.68,-11.66,-0.67
1777399792796,2426465,-0.62,-0.59,-0.44,10.80,-12.21,-0.61
1777399792796,2426475,-0.62,-0.60,-0.45,10.93,-12.82,-0.55
1777399792797,2426485,-0.63,-0.60,-0.44,11.05,-12.94,-0.85
1777399792797,2426495,-0.64,-0.61,-0.43,11.11,-13.24,-0.55
1777399792797,2426505,-0.65,-0.61,-0.44,10.99,-13.79,-0.31
1777399792797,2426515,-0.67,-0.61,-0.43,10.86,-14.28,-0.49
1777399792798,2426525,-0.68,-0.61,-0.44,10.93,-14.71,-0.67
1777399792798,2426535,-0.70,-0.61,-0.44,10.99,-14.22,-0.98
1777399792798,2426545,-0.71,-0.60,-0.44,11.35,-13.00,-1.46
1777399792798,2426555,-0.73,-0.60,-0.43,11.84,-11.41,-2.50
1777399792798,2426565,-0.74,-0.59,-0.41,12.15,-10.25,-3.17
1777399792798,2426575,-0.75,-0.59,-0.40,11.96,-9.70,-3.66
1777399792799,2426585,-0.75,-0.58,-0.40,11.47,-9.64,-4.39
1777399792799,2426595,-0.75,-0.58,-0.41,10.93,-9.16,-5.49
1777399792799,2426605,-0.74,-0.58,-0.42,10.50,-7.75,-6.59
1777399792799,2426615,-0.72,-0.58,-0.42,10.31,-5.86,-8.00
1777399792799,2426625,-0.70,-0.58,-0.43,10.25,-4.46,-8.79
1777399792799,2426635,-0.69,-0.58,-0.43,10.19,-4.27,-8.30
1777399792800,2426645,-0.68,-0.58,-0.43,10.13,-5.07,-7.69
1777399792800,2426655,-0.67,-0.58,-0.43,9.95,-6.23,-7.39
1777399792800,2426665,-0.66,-0.58,-0.43,9.83,-7.32,-6.96
1777399792800,2426675,-0.65,-0.58,-0.44,9.58,-7.63,-6.53
1777399792800,2426685,-0.64,-0.58,-0.43,9.34,-7.02,-5.55
1777399792801,2426695,-0.64,-0.58,-0.43,9.03,-6.29,-4.27
1777399792801,2426705,-0.64,-0.58,-0.42,8.42,-5.80,-3.11
1777399792801,2426725,-0.65,-0.59,-0.42,7.45,-5.62,-2.50
1777399792801,2426745,-0.66,-0.60,-0.40,8.48,-7.81,-3.05
1777399792801,2426765,-0.68,-0.60,-0.39,8.42,-8.97,-3.91
1777399792802,2426785,-0.68,-0.60,-0.38,7.75,-9.22,-4.58
1777399792802,2426795,-0.69,-0.60,-0.37,7.63,-8.91,-4.46
1777399792802,2426805,-0.69,-0.60,-0.37,6.90,-8.61,-4.52
1777399792802,2426815,-0.69,-0.61,-0.37,5.98,-8.24,-5.13
1777399792802,2426825,-0.69,-0.60,-0.38,5.68,-8.00,-6.29
1777399792803,2426835,-0.69,-0.60,-0.38,6.04,-8.00,-7.20
1777399792803,2426845,-0.68,-0.60,-0.38,6.71,-7.39,-7.39
1777399792803,2426855,-0.68,-0.60,-0.37,6.84,-6.41,-7.32
1777399792803,2426865,-0.67,-0.60,-0.38,6.35,-5.55,-7.02
1777399792803,2426875,-0.68,-0.60,-0.38,5.98,-5.13,-6.59
1777399792803,2426885,-0.68,-0.60,-0.38,5.86,-5.25,-6.59
1777399792804,2426895,-0.68,-0.60,-0.38,5.98,-5.86,-6.77
1777399792804,2426905,-0.67,-0.60,-0.38,5.92,-6.47,-7.08
1777399792804,2426915,-0.67,-0.60,-0.39,6.10,-6.59,-7.57
1777399792804,2426925,-0.67,-0.61,-0.39,6.90,-5.98,-7.75
1777399792804,2426935,-0.67,-0.61,-0.38,7.87,-5.92,-7.75
1777399792804,2426945,-0.67,-0.61,-0.37,7.75,-6.47,-8.00
1777399792805,2426955,-0.66,-0.61,-0.38,7.20,-7.08,-8.24
1777399792805,2426965,-0.65,-0.61,-0.38,7.02,-7.26,-8.00
1777399792805,2426975,-0.65,-0.61,-0.38,7.14,-6.77,-7.93
1777399792805,2426985,-0.65,-0.62,-0.37,7.45,-6.47,-7.45
1777399792805,2426995,-0.65,-0.62,-0.37,7.32,-6.65,-6.96
1777399792805,2427005,-0.65,-0.63,-0.37,7.26,-6.96,-7.14
1777399792806,2427015,-0.65,-0.63,-0.37,7.57,-7.14,-7.51
1777399792806,2427025,-0.66,-0.64,-0.37,7.93,-7.45,-7.69
1777399792806,2427035,-0.66,-0.64,-0.36,8.00,-7.87,-7.93
1777399792806,2427045,-0.66,-0.64,-0.35,7.81,-8.12,-8.18
1777399792806,2427055,-0.67,-0.65,-0.35,7.57,-8.24,-8.06
1777399792806,2427075,-0.67,-0.65,-0.34,5.49,-7.81,-7.32
1777399792807,2427095,-0.71,-0.65,-0.34,4.46,-6.84,-6.41
1777399792807,2427115,-0.70,-0.64,-0.33,4.33,-4.82,-7.32
1777399792807,2427135,-0.71,-0.64,-0.34,2.69,-4.76,-7.63
1777399792807,2427145,-0.70,-0.63,-0.34,2.50,-4.88,-7.81
1777399792807,2427155,-0.70,-0.62,-0.35,2.26,-4.64,-7.75
1777399792807,2427165,-0.69,-0.62,-0.35,1.71,-4.39,-7.39
1777399792808,2427175,-0.68,-0.62,-0.36,0.98,-3.72,-7.08
1777399792808,2427185,-0.67,-0.62,-0.37,0.49,-3.11,-6.84
1777399792808,2427195,-0.67,-0.62,-0.37,0.49,-2.69,-6.23
1777399792808,2427205,-0.67,-0.62,-0.38,0.85,-2.56,-5.86
1777399792808,2427215,-0.66,-0.62,-0.38,1.28,-2.87,-5.68
1777399792808,2427225,-0.66,-0.62,-0.39,2.26,-3.30,-5.37
1777399792809,2427235,-0.66,-0.61,-0.38,2.93,-3.17,-4.94
1777399792809,2427245,-0.66,-0.61,-0.38,3.30,-2.87,-4.21
1777399792809,2427255,-0.66,-0.60,-0.38,3.36,-2.62,-3.72
1777399792809,2427265,-0.66,-0.61,-0.38,3.17,-1.95,-3.42
1777399792809,2427275,-0.66,-0.61,-0.38,3.48,-1.71,-2.62
1777399792809,2427285,-0.66,-0.61,-0.37,3.72,-1.95,-2.01
1777399792810,2427295,-0.66,-0.62,-0.37,3.54,-2.99,-2.44
1777399792810,2427305,-0.66,-0.62,-0.37,3.23,-4.27,-2.93
1777399792810,2427315,-0.65,-0.63,-0.38,3.42,-4.94,-2.81
1777399792810,2427325,-0.65,-0.63,-0.38,3.66,-4.94,-2.56
1777399792810,2427335,-0.65,-0.63,-0.37,3.91,-4.46,-2.50
1777399792810,2427345,-0.65,-0.63,-0.37,3.91,-3.97,-2.26
1777399792811,2427355,-0.65,-0.63,-0.36,3.36,-3.91,-2.20
1777399792811,2427365,-0.65,-0.63,-0.36,2.69,-4.21,-2.20
1777399792811,2427375,-0.65,-0.64,-0.36,2.20,-4.64,-2.32
1777399792811,2427385,-0.65,-0.64,-0.36,1.89,-5.07,-2.75
1777399792811,2427395,-0.66,-0.64,-0.36,1.77,-5.55,-2.81
1777399792811,2427415,-0.66,-0.64,-0.36,1.28,-6.35,-2.75
1777399792812,2427435,-0.68,-0.63,-0.36,1.34,-5.49,-3.23
1777399792812,2427455,-0.69,-0.62,-0.37,-0.61,-4.88,-4.03
1777399792812,2427475,-0.69,-0.61,-0.37,-0.85,-4.70,-5.37
1777399792812,2427485,-0.69,-0.61,-0.37,-0.85,-5.55,-5.80
1777399792812,2427495,-0.68,-0.61,-0.38,-1.10,-6.47,-6.10
1777399792812,2427505,-0.68,-0.61,-0.39,-0.67,-6.77,-6.23
1777399792813,2427515,-0.67,-0.61,-0.39,0.24,-6.16,-6.29
1777399792813,2427525,-0.67,-0.60,-0.38,0.61,-5.43,-6.16
1777399792813,2427535,-0.66,-0.60,-0.38,0.73,-5.25,-5.98
1777399792813,2427545,-0.66,-0.60,-0.38,0.92,-5.00,-5.68
1777399792813,2427555,-0.66,-0.60,-0.37,1.22,-5.00,-5.07
1777399792813,2427565,-0.66,-0.60,-0.37,1.10,-5.49,-4.94
1777399792813,2427575,-0.66,-0.60,-0.37,0.73,-5.98,-5.07
1777399792814,2427585,-0.67,-0.60,-0.37,0.79,-6.10,-4.64
1777399792814,2427595,-0.67,-0.60,-0.37,0.98,-5.92,-3.97
1777399792814,2427605,-0.67,-0.60,-0.37,1.10,-5.74,-3.60
1777399792814,2427615,-0.67,-0.61,-0.37,1.10,-5.43,-3.48
1777399792814,2427625,-0.67,-0.61,-0.37,0.98,-5.00,-3.60
1777399792814,2427635,-0.67,-0.61,-0.37,0.98,-5.07,-3.30
1777399792815,2427645,-0.67,-0.61,-0.37,0.92,-5.37,-2.93
1777399792815,2427655,-0.67,-0.61,-0.37,0.67,-5.68,-2.75
1777399792815,2427665,-0.68,-0.61,-0.37,0.85,-6.16,-2.26
1777399792815,2427675,-0.68,-0.61,-0.37,0.79,-6.23,-1.83
1777399792815,2427685,-0.69,-0.61,-0.37,0.49,-5.74,-1.53
1777399792815,2427695,-0.70,-0.60,-0.37,0.37,-4.88,-0.92
1777399792816,2427705,-0.70,-0.60,-0.37,0.12,-3.97,-1.10
1777399792816,2427715,-0.71,-0.60,-0.36,0.06,-3.23,-1.77
1777399792816,2427725,-0.71,-0.60,-0.37,0.31,-3.11,-1.95
1777399792816,2427735,-0.71,-0.59,-0.38,0.24,-3.11,-2.20
1777399792816,2427745,-0.71,-0.59,-0.38,0.18,-2.99,-3.36
1777399792816,2427765,-0.72,-0.59,-0.38,0.61,-0.06,-3.85
1777399792816,2427785,-0.66,-0.57,-0.39,0.31,0.18,-5.19
1777399792816,2427805,-0.66,-0.58,-0.40,0.43,0.79,-4.09
1777399792817,2427825,-0.65,-0.59,-0.39,1.46,-0.37,-4.94
1777399792817,2427835,-0.64,-0.59,-0.39,2.26,-2.26,-4.94
1777399792817,2427845,-0.62,-0.61,-0.39,2.87,-4.46,-5.13
1777399792817,2427855,-0.62,-0.61,-0.39,3.23,-6.35,-5.19
1777399792817,2427865,-0.61,-0.62,-0.39,3.66,-7.39,-4.70
1777399792817,2427875,-0.61,-0.63,-0.39,4.09,-7.14,-4.15
1777399792817,2427885,-0.62,-0.63,-0.37,4.03,-6.65,-3.36
1777399792818,2427895,-0.64,-0.63,-0.36,3.66,-6.47,-2.14
1777399792818,2427905,-0.65,-0.63,-0.35,2.99,-7.02,-1.34
1777399792818,2427915,-0.66,-0.63,-0.34,2.20,-7.87,-1.59
1777399792818,2427925,-0.67,-0.64,-0.34,1.59,-8.30,-2.56
1777399792818,2427935,-0.68,-0.64,-0.34,1.04,-8.36,-3.66
1777399792818,2427945,-0.68,-0.63,-0.35,0.55,-8.00,-4.52
1777399792819,2427955,-0.69,-0.63,-0.35,0.06,-7.32,-4.82
1777399792819,2427965,-0.69,-0.63,-0.35,-0.49,-6.96,-5.13
1777399792819,2427975,-0.70,-0.63,-0.35,-0.92,-7.02,-5.19
1777399792819,2427985,-0.70,-0.63,-0.35,-1.22,-7.57,-5.31
1777399792819,2427995,-0.70,-0.63,-0.36,-1.77,-8.06,-5.55
1777399792819,2428005,-0.70,-0.62,-0.37,-1.95,-7.93,-5.98
1777399792819,2428015,-0.69,-0.62,-0.38,-2.01,-7.32,-6.53
1777399792820,2428025,-0.69,-0.62,-0.38,-2.14,-6.53,-6.47
1777399792820,2428035,-0.69,-0.61,-0.39,-2.20,-5.62,-5.86
1777399792820,2428045,-0.69,-0.60,-0.40,-2.26,-4.64,-5.55
1777399792820,2428055,-0.69,-0.59,-0.40,-2.14,-3.78,-5.55
1777399792820,2428065,-0.68,-0.58,-0.40,-2.01,-3.60,-5.13
1777399792820,2428075,-0.67,-0.59,-0.40,-1.95,-4.09,-4.64
1777399792820,2428085,-0.67,-0.59,-0.41,-1.53,-4.64,-4.64
1777399792821,2428105,-0.66,-0.60,-0.41,0.55,-6.29,-3.42
1777399792821,2428125,-0.67,-0.60,-0.39,0.37,-6.04,-2.38
1777399792821,2428145,-0.69,-0.60,-0.38,0.55,-4.64,-1.65
1777399792821,2428165,-0.70,-0.60,-0.37,-0.49,-3.23,-1.40
1777399792821,2428175,-0.70,-0.60,-0.38,-0.67,-3.05,-1.71
1777399792821,2428185,-0.70,-0.60,-0.38,-0.67,-3.23,-2.75
1777399792821,2428195,-0.69,-0.60,-0.39,-0.61,-3.36,-3.54
1777399792822,2428205,-0.68,-0.59,-0.39,-0.61,-3.48,-3.72
1777399792822,2428215,-0.68,-0.59,-0.39,-0.92,-3.17,-3.48
1777399792822,2428225,-0.68,-0.59,-0.39,-0.98,-2.62,-2.99
1777399792822,2428235,-0.68,-0.58,-0.39,-1.04,-2.08,-2.87
1777399792822,2428245,-0.68,-0.58,-0.39,-0.92,-1.77,-2.75
1777399792822,2428255,-0.68,-0.57,-0.39,-0.73,-1.77,-2.62
1777399792822,2428265,-0.68,-0.57,-0.39,-0.61,-2.01,-3.05
1777399792823,2428275,-0.68,-0.58,-0.39,-0.55,-2.87,-3.78
1777399792823,2428285,-0.67,-0.58,-0.40,-0.18,-4.03,-4.09
1777399792823,2428295,-0.67,-0.57,-0.40,0.49,-4.58,-4.09
1777399792823,2428305,-0.67,-0.57,-0.40,1.22,-4.64,-3.66
1777399792823,2428315,-0.67,-0.57,-0.40,1.53,-4.21,-3.05
1777399792823,2428325,-0.68,-0.57,-0.40,1.71,-3.91,-3.11
1777399792823,2428335,-0.68,-0.57,-0.40,2.08,-3.72,-3.17
1777399792824,2428345,-0.68,-0.57,-0.39,2.20,-3.97,-3.11
1777399792824,2428355,-0.68,-0.57,-0.39,2.20,-4.52,-3.05
1777399792824,2428365,-0.67,-0.58,-0.40,2.32,-5.13,-3.17
1777399792824,2428375,-0.67,-0.58,-0.40,2.56,-5.62,-3.23
1777399792824,2428385,-0.66,-0.58,-0.40,2.75,-5.86,-3.11
1777399792824,2428395,-0.66,-0.59,-0.40,2.87,-5.74,-2.62
1777399792824,2428405,-0.67,-0.59,-0.40,2.99,-5.37,-2.44
1777399792825,2428415,-0.67,-0.59,-0.39,2.81,-5.00,-1.83
1777399792825,2428425,-0.68,-0.59,-0.39,2.62,-4.70,-0.92
1777399792825,2428435,-0.69,-0.58,-0.39,2.08,-4.27,-0.79
1777399792825,2428455,-0.71,-0.58,-0.40,2.75,-3.78,-1.22
1777399792825,2428475,-0.69,-0.58,-0.41,2.38,-3.91,-3.60
1777399792825,2428495,-0.71,-0.59,-0.43,1.83,-2.62,-4.21
1777399792825,2428515,-0.70,-0.57,-0.41,4.27,-1.16,-5.31
1777399792825,2428525,-0.69,-0.58,-0.41,4.58,-1.89,-5.74
1777399792826,2428535,-0.69,-0.57,-0.40,4.70,-2.93,-6.23
1777399792826,2428545,-0.68,-0.57,-0.40,5.00,-3.72,-6.35
1777399792826,2428555,-0.67,-0.57,-0.40,5.00,-4.03,-7.20
1777399792826,2428565,-0.66,-0.58,-0.39,4.88,-4.03,-7.93
1777399792826,2428575,-0.65,-0.58,-0.39,5.00,-4.09,-8.12
1777399792826,2428585,-0.65,-0.58,-0.39,4.82,-4.39,-8.12
1777399792826,2428595,-0.65,-0.58,-0.38,4.76,-4.82,-7.57
1777399792827,2428605,-0.64,-0.59,-0.38,4.46,-5.37,-6.71
1777399792827,2428615,-0.64,-0.59,-0.38,3.85,-5.68,-6.65
1777399792827,2428625,-0.65,-0.61,-0.37,3.17,-5.49,-6.41
1777399792827,2428635,-0.66,-0.62,-0.37,3.66,-5.98,-5.98
1777399792827,2428645,-0.66,-0.62,-0.36,4.03,-7.45,-6.04
1777399792827,2428655,-0.66,-0.61,-0.36,3.54,-8.61,-6.84
1777399792827,2428665,-0.67,-0.61,-0.36,2.81,-9.22,-7.20
1777399792828,2428675,-0.67,-0.61,-0.37,2.08,-8.91,-6.71
1777399792828,2428685,-0.68,-0.61,-0.37,1.65,-8.12,-6.16
1777399792828,2428695,-0.69,-0.61,-0.36,1.16,-7.51,-6.41
1777399792828,2428705,-0.69,-0.61,-0.37,0.31,-7.63,-7.02
1777399792828,2428715,-0.68,-0.61,-0.37,-0.55,-8.36,-7.87
1777399792828,2428725,-0.68,-0.62,-0.39,-0.79,-8.91,-8.48
1777399792828,2428735,-0.67,-0.62,-0.39,-0.31,-9.03,-8.79
1777399792828,2428745,-0.67,-0.62,-0.39,0.06,-9.16,-8.67
1777399792829,2428755,-0.67,-0.62,-0.39,0.06,-9.34,-8.91
1777399792829,2428765,-0.68,-0.62,-0.39,-0.18,-9.34,-9.03
1777399792829,2428775,-0.68,-0.62,-0.39,-0.37,-9.28,-8.97
1777399792829,2428785,-0.68,-0.61,-0.39,-0.98,-8.91,-9.16
1777399792829,2428805,-0.69,-0.61,-0.39,-1.28,-7.08,-8.85
1777399792829,2428825,-0.70,-0.61,-0.39,-1.10,-7.39,-8.97
1777399792829,2428845,-0.70,-0.60,-0.39,-0.31,-6.47,-8.48
1777399792829,2428855,-0.70,-0.59,-0.39,-0.43,-5.37,-7.81
1777399792830,2428865,-0.70,-0.59,-0.39,-0.73,-4.21,-7.39
1777399792830,2428875,-0.70,-0.59,-0.39,-0.92,-3.60,-6.90
1777399792830,2428885,-0.69,-0.58,-0.39,-0.92,-3.54,-6.53
1777399792830,2428895,-0.69,-0.58,-0.39,-0.85,-3.66,-6.16
1777399792830,2428905,-0.68,-0.57,-0.39,-0.67,-3.54,-5.74
1777399792830,2428915,-0.68,-0.58,-0.40,-0.18,-3.23,-5.68
1777399792830,2428925,-0.67,-0.57,-0.40,0.49,-3.05,-5.31
1777399792830,2428935,-0.66,-0.57,-0.40,0.43,-3.23,-4.27
1777399792831,2428945,-0.66,-0.57,-0.40,0.12,-3.36,-3.17
1777399792831,2428955,-0.66,-0.57,-0.41,0.00,-3.36,-2.20
1777399792831,2428965,-0.67,-0.57,-0.41,0.31,-3.05,-1.46
1777399792831,2428975,-0.67,-0.57,-0.41,0.73,-2.81,-0.73
1777399792831,2428985,-0.68,-0.58,-0.41,0.92,-2.56,-0.12
1777399792831,2428995,-0.68,-0.59,-0.41,1.10,-2.56,0.12
1777399792831,2429005,-0.69,-0.59,-0.41,1.89,-3.05,-0.37
1777399792832,2429015,-0.69,-0.59,-0.41,2.56,-3.54,-0.92
1777399792832,2429025,-0.68,-0.59,-0.41,2.87,-3.72,-1.04
1777399792832,2429035,-0.68,-0.59,-0.40,2.87,-3.60,-0.85
1777399792832,2429045,-0.68,-0.59,-0.40,2.75,-3.23,-0.43
1777399792832,2429055,-0.68,-0.59,-0.40,2.44,-2.75,-0.18
1777399792832,2429065,-0.68,-0.59,-0.40,1.95,-2.14,-0.31
1777399792832,2429075,-0.68,-0.59,-0.39,1.59,-1.89,-0.43
1777399792832,2429085,-0.69,-0.60,-0.39,1.77,-2.32,-0.85
1777399792833,2429095,-0.69,-0.59,-0.39,1.83,-3.30,-1.77
1777399792833,2429105,-0.68,-0.59,-0.39,1.77,-4.15,-2.62
1777399792833,2429115,-0.68,-0.59,-0.40,1.46,-4.27,-3.11
1777399792833,2429125,-0.68,-0.59,-0.39,1.04,-3.78,-3.91
1777399792833,2429145,-0.67,-0.59,-0.39,0.31,-4.21,-3.36
1777399792833,2429165,-0.66,-0.59,-0.40,-0.12,-5.86,-4.09
1777399792833,2429185,-0.65,-0.60,-0.40,0.12,-6.59,-4.21
1777399792833,2429205,-0.66,-0.60,-0.40,0.31,-7.08,-4.70
1777399792834,2429215,-0.67,-0.59,-0.40,0.06,-7.81,-5.13
1777399792834,2429225,-0.68,-0.60,-0.40,-0.18,-8.00,-5.25
1777399792834,2429235,-0.69,-0.60,-0.40,0.00,-7.51,-5.37
1777399792834,2429245,-0.69,-0.59,-0.41,0.18,-6.77,-5.80
1777399792834,2429255,-0.70,-0.59,-0.40,0.24,-5.98,-6.16
1777399792834,2429265,-0.71,-0.58,-0.40,0.49,-5.74,-6.71
1777399792834,2429275,-0.71,-0.57,-0.40,0.92,-6.04,-7.14
1777399792835,2429285,-0.71,-0.57,-0.39,1.22,-6.96,-7.14
1777399792835,2429295,-0.71,-0.57,-0.40,1.16,-7.51,-7.63
1777399792835,2429305,-0.70,-0.57,-0.41,0.92,-6.96,-8.12
1777399792835,2429315,-0.70,-0.56,-0.41,1.34,-5.74,-7.69
1777399792835,2429325,-0.69,-0.56,-0.41,1.71,-4.94,-6.96
1777399792835,2429335,-0.69,-0.56,-0.41,1.71,-4.82,-6.53
1777399792835,2429345,-0.69,-0.56,-0.41,1.83,-4.88,-5.86
1777399792835,2429355,-0.69,-0.56,-0.41,1.83,-4.52,-5.31
1777399792836,2429365,-0.69,-0.56,-0.42,2.14,-4.03,-5.07
1777399792836,2429375,-0.70,-0.56,-0.42,2.50,-3.36,-4.94
1777399792836,2429385,-0.70,-0.56,-0.42,2.56,-2.69,-4.76
1777399792836,2429395,-0.70,-0.56,-0.42,2.81,-2.32,-4.03
1777399792836,2429405,-0.70,-0.56,-0.43,3.42,-2.08,-3.36
1777399792836,2429415,-0.69,-0.55,-0.42,3.78,-1.83,-3.72
1777399792836,2429425,-0.69,-0.55,-0.42,4.15,-2.08,-4.03
1777399792836,2429435,-0.68,-0.56,-0.42,4.70,-2.81,-3.60
1777399792837,2429445,-0.68,-0.57,-0.43,5.31,-3.23,-3.42
1777399792837,2429455,-0.67,-0.57,-0.42,6.10,-3.42,-3.78
1777399792837,2429465,-0.66,-0.57,-0.42,6.41,-3.54,-3.97
1777399792837,2429475,-0.67,-0.57,-0.41,6.71,-3.36,-2.38
1777399792837,2429495,-0.67,-0.58,-0.40,6.53,-2.50,-2.20
1777399792837,2429515,-0.68,-0.59,-0.39,5.98,-2.44,-2.14
1777399792837,2429535,-0.69,-0.60,-0.38,5.55,-3.11,-3.30
1777399792837,2429555,-0.68,-0.61,-0.40,5.07,-3.30,-5.19
1777399792838,2429565,-0.68,-0.59,-0.40,5.25,-3.05,-5.74
1777399792838,2429575,-0.68,-0.60,-0.40,5.07,-2.87,-5.80
1777399792838,2429585,-0.68,-0.60,-0.40,4.64,-2.50,-5.92
1777399792838,2429595,-0.68,-0.59,-0.39,4.76,-2.62,-5.92
1777399792838,2429605,-0.68,-0.59,-0.39,5.07,-3.30,-6.10
1777399792838,2429615,-0.68,-0.59,-0.39,4.88,-3.66,-6.53
1777399792838,2429625,-0.68,-0.60,-0.39,4.70,-4.15,-6.96
1777399792838,2429635,-0.67,-0.60,-0.40,4.88,-4.58,-7.20
1777399792839,2429645,-0.67,-0.60,-0.40,5.31,-5.13,-7.51
1777399792839,2429655,-0.66,-0.59,-0.39,5.37,-5.31,-7.63
1777399792839,2429665,-0.66,-0.59,-0.39,5.00,-5.07,-7.75
1777399792839,2429675,-0.66,-0.59,-0.39,4.64,-4.64,-7.75
1777399792839,2429685,-0.65,-0.59,-0.39,4.39,-4.52,-7.45
1777399792839,2429695,-0.65,-0.60,-0.39,3.97,-4.82,-7.32
1777399792839,2429705,-0.65,-0.60,-0.38,3.66,-5.68,-7.57
1777399792839,2429715,-0.65,-0.61,-0.38,3.54,-7.02,-7.87
1777399792839,2429725,-0.64,-0.62,-0.38,3.60,-8.36,-7.75
1777399792840,2429735,-0.64,-0.62,-0.38,3.85,-8.91,-7.63
1777399792840,2429745,-0.63,-0.62,-0.37,3.78,-9.03,-7.63
1777399792840,2429755,-0.63,-0.63,-0.37,3.23,-8.97,-7.45
1777399792840,2429765,-0.64,-0.63,-0.36,2.50,-8.79,-6.77
1777399792840,2429775,-0.64,-0.64,-0.36,1.77,-8.85,-6.10
1777399792840,2429785,-0.65,-0.64,-0.36,1.34,-9.40,-5.98
1777399792840,2429795,-0.66,-0.64,-0.36,0.98,-10.07,-6.04
1777399792840,2429805,-0.66,-0.63,-0.36,0.37,-10.50,-6.10
1777399792841,2429815,-0.67,-0.63,-0.37,-0.18,-10.44,-6.04
1777399792841,2429835,-0.69,-0.63,-0.37,-1.40,-8.36,-6.23
1777399792841,2429855,-0.70,-0.62,-0.39,-2.26,-8.12,-6.04
1777399792841,2429875,-0.70,-0.60,-0.39,-2.20,-7.08,-5.80
1777399792841,2429895,-0.70,-0.59,-0.41,-2.93,-5.80,-6.04
1777399792841,2429905,-0.69,-0.59,-0.42,-1.65,-5.37,-5.80
1777399792841,2429915,-0.69,-0.59,-0.41,-0.73,-5.00,-5.98
1777399792841,2429925,-0.69,-0.59,-0.41,-0.24,-5.55,-5.86
1777399792841,2429935,-0.68,-0.59,-0.41,0.18,-6.35,-5.43
1777399792842,2429945,-0.68,-0.60,-0.41,0.12,-6.90,-4.76
1777399792842,2429955,-0.67,-0.60,-0.40,-0.12,-6.41,-4.39
1777399792842,2429965,-0.67,-0.60,-0.39,-0.55,-5.49,-3.97
1777399792842,2429975,-0.68,-0.60,-0.38,-0.98,-4.58,-2.56
1777399792842,2429985,-0.69,-0.60,-0.38,-1.65,-3.97,-1.22
1777399792842,2429995,-0.70,-0.60,-0.38,-2.32,-3.54,-0.85
1777399792842,2430005,-0.70,-0.59,-0.39,-2.56,-2.81,-1.22
1777399792843,2430015,-0.69,-0.59,-0.39,-2.87,-1.71,-1.65
1777399792843,2430025,-0.69,-0.58,-0.39,-2.99,-1.16,-1.77
1777399792843,2430035,-0.69,-0.58,-0.40,-2.62,-1.40,-1.65
1777399792843,2430045,-0.69,-0.58,-0.40,-2.01,-1.95,-1.95
1777399792843,2430055,-0.69,-0.58,-0.40,-1.71,-2.81,-2.08
1777399792843,2430065,-0.68,-0.57,-0.40,-1.65,-3.42,-1.71
1777399792843,2430075,-0.68,-0.57,-0.41,-1.77,-3.42,-1.59
1777399792843,2430085,-0.68,-0.56,-0.41,-1.59,-2.50,-1.53
1777399792843,2430095,-0.69,-0.56,-0.42,-0.92,-1.16,-1.34
1777399792844,2430105,-0.68,-0.56,-0.41,-0.12,-0.06,-1.28
1777399792844,2430115,-0.68,-0.55,-0.41,0.12,0.00,-1.46
1777399792844,2430125,-0.68,-0.55,-0.41,0.00,-0.67,-1.34
1777399792844,2430135,-0.67,-0.56,-0.42,0.18,-1.46,-1.04
1777399792844,2430145,-0.67,-0.56,-0.43,0.79,-2.14,-1.04
1777399792844,2430155,-0.67,-0.56,-0.43,1.77,-2.32,-1.22
1777399792844,2430165,-0.67,-0.56,-0.43,2.50,-2.14,-0.98
1777399792844,2430185,-0.67,-0.56,-0.42,3.72,-3.78,-0.92
1777399792845,2430205,-0.67,-0.57,-0.40,3.54,-4.52,-1.10
1777399792845,2430225,-0.68,-0.58,-0.39,2.56,-3.72,0.06
1777399792845,2430245,-0.68,-0.58,-0.39,1.46,-3.97,-0.18
1777399792845,2430255,-0.68,-0.58,-0.39,1.04,-4.39,-0.79
1777399792845,2430265,-0.68,-0.58,-0.40,0.79,-4.70,-1.77
1777399792845,2430275,-0.68,-0.58,-0.40,0.61,-4.88,-2.75
1777399792845,2430285,-0.68,-0.58,-0.40,0.49,-4.94,-3.36
1777399792845,2430295,-0.68,-0.59,-0.41,0.31,-5.37,-3.78
1777399792845,2430305,-0.67,-0.59,-0.41,0.31,-5.92,-4.46
1777399792846,2430315,-0.67,-0.59,-0.41,0.31,-6.41,-5.07
1777399792846,2430325,-0.67,-0.58,-0.41,0.31,-6.71,-5.43
1777399792846,2430335,-0.67,-0.58,-0.41,0.43,-6.47,-5.55
1777399792846,2430345,-0.68,-0.58,-0.40,0.49,-5.80,-5.74
1777399792846,2430355,-0.69,-0.57,-0.40,0.37,-5.55,-6.04
1777399792846,2430365,-0.70,-0.57,-0.39,0.31,-6.41,-6.35
1777399792846,2430375,-0.70,-0.57,-0.40,0.00,-7.69,-7.39
1777399792846,2430385,-0.69,-0.57,-0.41,0.00,-8.54,-8.54
1777399792847,2430395,-0.68,-0.57,-0.42,0.43,-8.67,-9.03
1777399792847,2430405,-0.68,-0.57,-0.42,1.10,-7.87,-9.03
1777399792847,2430415,-0.68,-0.57,-0.42,1.40,-6.96,-9.16
1777399792847,2430425,-0.69,-0.57,-0.41,1.59,-6.47,-8.85
1777399792847,2430435,-0.69,-0.57,-0.41,1.83,-6.59,-8.48
1777399792847,2430445,-0.70,-0.57,-0.40,2.44,-6.96,-7.93
1777399792847,2430455,-0.70,-0.57,-0.40,2.50,-6.90,-7.45
1777399792847,2430465,-0.70,-0.57,-0.40,2.14,-6.53,-6.65
1777399792847,2430475,-0.70,-0.56,-0.42,1.89,-5.74,-5.80
1777399792848,2430485,-0.71,-0.56,-0.42,2.01,-4.15,-6.04
1777399792848,2430495,-0.71,-0.57,-0.41,2.87,-3.36,-5.86
1777399792848,2430505,-0.71,-0.55,-0.41,4.09,-4.52,-5.43
1777399792848,2430525,-0.71,-0.56,-0.42,2.87,-2.56,-2.93
1777399792848,2430545,-0.72,-0.56,-0.43,3.48,0.12,-1.34
1777399792848,2430565,-0.69,-0.57,-0.43,3.72,0.00,-2.08
1777399792848,2430585,-0.67,-0.56,-0.44,4.15,0.37,-1.59
1777399792848,2430595,-0.66,-0.56,-0.45,4.64,0.18,-1.16
1777399792849,2430605,-0.66,-0.57,-0.44,5.13,0.49,-0.73
1777399792849,2430615,-0.65,-0.57,-0.45,6.23,0.00,-0.61
1777399792849,2430625,-0.65,-0.58,-0.43,6.35,0.00,-0.37
1777399792849,2430635,-0.65,-0.58,-0.43,6.35,-0.92,-0.73
1777399792849,2430645,-0.65,-0.58,-0.42,5.55,-2.56,-0.98
1777399792849,2430655,-0.65,-0.59,-0.43,5.00,-4.52,-0.98
1777399792849,2430665,-0.64,-0.58,-0.43,4.39,-5.80,-0.92
1777399792849,2430675,-0.64,-0.60,-0.43,4.03,-7.39,-0.85
1777399792849,2430685,-0.65,-0.60,-0.43,4.52,-9.70,-1.46
1777399792850,2430695,-0.66,-0.60,-0.41,5.31,-12.39,-2.44
1777399792850,2430705,-0.65,-0.60,-0.41,5.00,-18.25,-3.78
1777399792850,2430715,-0.64,-0.61,-0.43,5.25,-25.76,-5.31
1777399792850,2430725,-0.65,-0.60,-0.42,7.14,-29.91,-6.23
1777399792850,2430735,-0.66,-0.59,-0.41,8.18,-32.47,-6.35
1777399792850,2430745,-0.67,-0.60,-0.39,8.67,-33.75,-6.04
1777399792850,2430755,-0.68,-0.60,-0.38,8.06,-33.63,-6.04
1777399792850,2430765,-0.69,-0.59,-0.37,7.20,-31.19,-5.98
1777399792850,2430775,-0.70,-0.60,-0.37,6.90,-27.28,-4.94
1777399792851,2430785,-0.71,-0.60,-0.35,6.65,-21.55,-4.27
1777399792851,2430795,-0.72,-0.60,-0.33,5.92,-15.26,-4.09
1777399792851,2430805,-0.73,-0.60,-0.31,4.94,-9.46,-3.11
1777399792851,2430815,-0.75,-0.60,-0.29,3.85,-4.52,-2.20
1777399792851,2430825,-0.76,-0.61,-0.26,2.62,-1.16,-2.38
1777399792851,2430835,-0.77,-0.62,-0.25,0.43,-0.49,-3.97
1777399792851,2430845,-0.77,-0.62,-0.24,-2.32,-2.14,-6.04
1777399792851,2430855,-0.75,-0.62,-0.26,-4.70,-4.82,-8.67
1777399792851,2430875,-0.71,-0.61,-0.32,-8.36,-0.79,-8.79
1777399792852,2430895,-0.68,-0.59,-0.35,-10.07,9.64,-5.92
1777399792852,2430915,-0.68,-0.58,-0.35,-11.11,18.92,-4.70
1777399792852,2430935,-0.69,-0.57,-0.37,-13.12,19.04,-3.66
1777399792852,2430945,-0.69,-0.56,-0.39,-13.49,16.48,-3.78
1777399792852,2430955,-0.70,-0.55,-0.41,-13.06,13.49,-4.15
1777399792852,2430965,-0.70,-0.55,-0.43,-12.33,11.05,-4.70
1777399792852,2430975,-0.69,-0.54,-0.45,-11.54,9.22,-5.31
1777399792852,2430985,-0.69,-0.54,-0.47,-10.74,7.81,-5.55
1777399792853,2430995,-0.68,-0.53,-0.49,-9.70,6.59,-5.43
1777399792853,2431005,-0.67,-0.53,-0.51,-8.36,5.74,-5.68
1777399792853,2431015,-0.65,-0.53,-0.52,-6.41,5.62,-5.62
1777399792853,2431025,-0.63,-0.52,-0.53,-4.27,5.80,-4.82
1777399792853,2431035,-0.63,-0.53,-0.53,-2.20,6.10,-3.60
1777399792853,2431045,-0.63,-0.53,-0.52,0.31,6.35,-2.99
1777399792853,2431055,-0.63,-0.54,-0.50,2.87,5.62,-2.93
1777399792853,2431065,-0.64,-0.55,-0.48,4.70,2.50,-2.93
1777399792853,2431075,-0.63,-0.56,-0.48,5.55,-2.81,-3.36
1777399792854,2431085,-0.62,-0.56,-0.49,6.29,-7.87,-3.54
1777399792854,2431095,-0.63,-0.56,-0.49,7.87,-10.56,-2.32
1777399792854,2431105,-0.66,-0.57,-0.45,9.64,-10.93,-0.18
1777399792854,2431115,-0.69,-0.58,-0.42,9.64,-11.78,0.92
1777399792854,2431125,-0.71,-0.59,-0.41,8.00,-13.49,0.37
1777399792854,2431135,-0.73,-0.60,-0.40,6.65,-14.89,-0.73
1777399792854,2431145,-0.75,-0.62,-0.38,6.04,-15.63,-1.16
1777399792854,2431155,-0.77,-0.64,-0.36,5.74,-16.36,-2.20
1777399792861,2431165,-0.78,-0.65,-0.34,4.94,-16.91,-4.58
1777399792871,2431175,-0.78,-0.65,-0.32,3.85,-16.54,-7.14
1777399792881,2431185,-0.74,-0.64,-0.34,2.62,-14.40,-8.42
1777399792891,2431195,-0.71,-0.64,-0.35,3.30,-5.07,-7.08
1777399792911,2431215,-0.64,-0.60,-0.32,-0.12,68.85,8.36
1777399792931,2431235,-0.73,-0.57,-0.19,-26.79,97.29,11.41
1777399792951,2431255,-0.66,-0.60,-0.37,-45.72,83.62,3.54
1777399792971,2431275,-0.54,-0.46,-0.57,-47.67,64.33,-4.27
1777399792981,2431285,-0.52,-0.47,-0.64,-47.12,56.09,-3.91
1777399792991,2431295,-0.51,-0.42,-0.71,-43.88,48.22,-1.83
1777399793001,2431305,-0.49,-0.46,-0.76,-38.45,40.83,-1.04
1777399793011,2431315,-0.51,-0.37,-0.80,-31.13,32.10,-1.59
1777399793021,2431325,-0.50,-0.41,-0.84,-23.68,23.07,-0.31
1777399793031,2431335,-0.51,-0.40,-0.84,-14.83,13.85,-0.85
1777399793041,2431345,-0.54,-0.42,-0.80,-6.41,2.87,-2.26
1777399793051,2431355,-0.55,-0.42,-0.79,0.61,-11.47,-4.09
1777399793061,2431365,-0.55,-0.43,-0.79,7.02,-25.63,-5.62
1777399793071,2431375,-0.56,-0.44,-0.78,13.37,-35.64,-7.08
1777399793081,2431385,-0.57,-0.46,-0.75,20.45,-39.43,-6.71
1777399793091,2431395,-0.61,-0.47,-0.67,26.79,-36.01,-4.64
1777399793101,2431405,-0.67,-0.51,-0.56,30.33,-30.88,-1.65
1777399793111,2431415,-0.73,-0.54,-0.46,31.01,-29.42,0.92
1777399793121,2431425,-0.79,-0.57,-0.37,28.93,-31.74,0.55
1777399793131,2431435,-0.80,-0.61,-0.33,25.02,-36.07,-2.93
1777399793141,2431445,-0.80,-0.61,-0.30,21.79,-40.10,-7.51
1777399793151,2431455,-0.78,-0.62,-0.30,19.04,-41.32,-10.62
1777399793161,2431465,-0.72,-0.62,-0.32,16.66,-37.35,-12.27
1777399793171,2431475,-0.67,-0.62,-0.33,14.83,-24.23,-12.33
1777399793181,2431485,-0.66,-0.59,-0.29,11.41,-4.58,-10.25
1777399793191,2431495,-0.65,-0.57,-0.28,3.48,13.12,-7.20
1777399793201,2431505,-0.64,-0.58,-0.31,-6.84,24.78,-4.39
1777399793211,2431515,-0.62,-0.59,-0.37,-15.50,30.82,-2.26
1777399793221,2431525,-0.60,-0.57,-0.44,-22.34,31.62,-0.85
1777399793231,2431535,-0.58,-0.56,-0.52,-27.40,29.42,-0.24
1777399793241,2431545,-0.55,-0.56,-0.61,-29.97,25.94,-1.16
1777399793261,2431565,-0.51,-0.51,-0.76,-22.34,11.23,3.17
1777399793281,2431585,-0.55,-0.52,-0.85,-6.77,-6.35,5.19
1777399793301,2431605,-0.56,-0.53,-0.79,9.03,-29.85,2.87
1777399793321,2431625,-0.58,-0.53,-0.72,20.02,-60.49,2.08
1777399793331,2431635,-0.61,-0.52,-0.66,24.17,-73.55,2.56
1777399793341,2431645,-0.64,-0.52,-0.61,27.59,-84.41,4.33
1777399793351,2431655,-0.68,-0.50,-0.53,29.48,-92.16,6.53
1777399793361,2431665,-0.73,-0.50,-0.46,29.60,-97.53,9.46
1777399793371,2431675,-0.79,-0.50,-0.39,28.69,-100.65,11.78
1777399793381,2431685,-0.78,-0.50,-0.37,27.40,-100.95,11.29
1777399793391,2431695,-0.81,-0.51,-0.32,26.61,-93.93,6.29
1777399793401,2431705,-0.81,-0.47,-0.27,25.45,-82.52,0.18
1777399793411,2431715,-0.81,-0.47,-0.23,22.77,-69.03,-3.23
1777399793421,2431725,-0.80,-0.45,-0.20,18.62,-53.47,-5.31
1777399793431,2431735,-0.80,-0.43,-0.18,12.57,-37.78,-6.10
1777399793441,2431745,-0.79,-0.42,-0.18,5.13,-21.48,-5.86
1777399793451,2431755,-0.78,-0.41,-0.19,-2.99,-4.03,-6.53
1777399793461,2431765,-0.76,-0.39,-0.21,-11.35,12.08,-7.14
1777399793471,2431775,-0.73,-0.41,-0.27,-17.76,23.07,-5.74
1777399793481,2431785,-0.71,-0.42,-0.34,-22.40,32.35,-5.92
1777399793491,2431795,-0.69,-0.43,-0.39,-25.94,41.81,-8.18
1777399793501,2431805,-0.65,-0.42,-0.45,-28.63,49.80,-10.19
1777399793511,2431815,-0.64,-0.45,-0.48,-30.94,54.81,-10.56
1777399793521,2431825,-0.63,-0.47,-0.50,-31.62,54.57,-9.77
1777399793531,2431835,-0.60,-0.47,-0.56,-31.49,48.03,-8.48
1777399793541,2431845,-0.57,-0.49,-0.63,-30.82,37.54,-6.35
1777399793551,2431855,-0.54,-0.50,-0.70,-27.04,26.49,-3.72
1777399793561,2431865,-0.53,-0.52,-0.73,-20.87,15.50,0.18
1777399793571,2431875,-0.54,-0.53,-0.75,-14.04,4.64,4.09
1777399793581,2431885,-0.55,-0.56,-0.76,-7.81,-6.10,6.04
1777399793601,2431905,-0.59,-0.59,-0.72,4.33,-24.35,0.31
1777399793621,2431925,-0.62,-0.64,-0.60,4.82,-32.59,-1.46
1777399793641,2431945,-0.55,-0.61,-0.53,1.04,-35.03,-2.62
1777399793661,2431965,-0.55,-0.53,-0.44,-3.78,-38.88,3.42
1777399793671,2431975,-0.54,-0.49,-0.40,-7.26,-42.79,7.14
1777399793681,2431985,-0.57,-0.44,-0.37,-10.99,-47.36,11.72
1777399793691,2431995,-0.61,-0.41,-0.34,-13.00,-52.37,18.19
1777399793701,2432005,-0.66,-0.39,-0.34,-13.73,-57.01,21.73
1777399793711,2432015,-0.72,-0.36,-0.33,-13.37,-58.96,19.47
1777399793721,2432025,-0.75,-0.32,-0.31,-12.82,-58.47,15.26
1777399793731,2432035,-0.77,-0.28,-0.28,-12.94,-56.95,13.12
1777399793741,2432045,-0.78,-0.27,-0.27,-14.10,-55.79,13.85
1777399793751,2432055,-0.80,-0.21,-0.27,-15.26,-54.81,15.99
1777399793761,2432065,-0.82,-0.21,-0.27,-16.17,-52.86,20.20
1777399793771,2432075,-0.83,-0.18,-0.27,-15.75,-49.62,23.38
1777399793781,2432085,-0.86,-0.18,-0.28,-15.08,-44.92,26.18
