host_time_ms,arduino_time_ms,ax,ay,az,gx,gy,gz
1777399489246,2115829,-0.79,-0.57,-0.21,8.30,-2.81,-1.59
1777399489246,2115839,-0.80,-0.57,-0.20,7.14,-3.36,-2.08
1777399489247,2115849,-0.79,-0.57,-0.21,5.80,-4.76,-2.20
1777399489247,2115859,-0.80,-0.56,-0.20,4.76,-5.92,-2.38
1777399489247,2115869,-0.80,-0.56,-0.21,3.54,-6.47,-3.05
1777399489247,2115879,-0.80,-0.56,-0.22,2.87,-6.23,-3.91
1777399489248,2115889,-0.80,-0.56,-0.21,2.99,-5.19,-4.27
1777399489248,2115899,-0.80,-0.55,-0.21,2.50,-4.52,-4.21
1777399489248,2115909,-0.79,-0.55,-0.22,2.08,-3.85,-4.09
1777399489248,2115919,-0.78,-0.54,-0.22,1.83,-2.62,-4.03
1777399489249,2115929,-0.79,-0.54,-0.22,0.98,-1.71,-3.66
1777399489249,2115939,-0.79,-0.54,-0.23,0.49,-1.95,-3.54
1777399489249,2115949,-0.78,-0.53,-0.23,0.31,-2.93,-3.60
1777399489249,2115959,-0.78,-0.53,-0.24,0.24,-3.91,-3.85
1777399489249,2115969,-0.79,-0.53,-0.24,0.55,-4.33,-4.39
1777399489250,2115979,-0.78,-0.53,-0.24,0.85,-4.82,-5.19
1777399489250,2115989,-0.78,-0.53,-0.25,0.85,-4.82,-4.88
1777399489250,2115999,-0.78,-0.54,-0.25,1.46,-4.70,-4.58
1777399489250,2116009,-0.78,-0.54,-0.25,2.38,-4.33,-4.82
1777399489251,2116019,-0.78,-0.54,-0.25,2.75,-3.85,-4.94
1777399489251,2116029,-0.78,-0.54,-0.25,2.99,-3.30,-4.70
1777399489251,2116039,-0.79,-0.54,-0.24,3.17,-2.99,-4.70
1777399489251,2116049,-0.79,-0.54,-0.24,3.17,-3.48,-5.07
1777399489252,2116059,-0.79,-0.54,-0.24,3.17,-4.46,-5.13
1777399489252,2116069,-0.78,-0.55,-0.24,3.17,-5.25,-5.62
1777399489252,2116079,-0.79,-0.55,-0.23,3.48,-6.10,-7.32
1777399489252,2116099,-0.76,-0.55,-0.25,5.13,-9.40,-7.63
1777399489253,2116119,-0.75,-0.55,-0.23,5.92,-8.67,-6.23
1777399489253,2116139,-0.77,-0.56,-0.22,4.58,-8.48,-5.74
1777399489253,2116159,-0.78,-0.56,-0.21,4.15,-6.10,-5.74
1777399489253,2116169,-0.78,-0.57,-0.21,3.42,-4.88,-5.19
1777399489254,2116179,-0.79,-0.57,-0.20,2.44,-4.03,-5.55
1777399489254,2116189,-0.80,-0.57,-0.20,1.77,-4.09,-7.14
1777399489254,2116199,-0.80,-0.57,-0.20,1.83,-5.43,-8.54
1777399489254,2116209,-0.80,-0.57,-0.20,2.32,-7.32,-9.34
1777399489254,2116219,-0.80,-0.57,-0.21,2.26,-9.34,-9.52
1777399489255,2116229,-0.80,-0.57,-0.22,2.08,-10.99,-10.07
1777399489255,2116239,-0.80,-0.56,-0.23,1.89,-11.60,-10.62
1777399489256,2116249,-0.79,-0.55,-0.23,1.65,-11.23,-10.74
1777399489256,2116259,-0.78,-0.55,-0.24,1.28,-9.34,-10.80
1777399489256,2116269,-0.78,-0.55,-0.24,1.34,-6.59,-10.74
1777399489257,2116279,-0.77,-0.54,-0.23,1.77,-3.91,-10.56
1777399489257,2116289,-0.76,-0.54,-0.22,1.59,-2.14,-10.25
1777399489257,2116299,-0.77,-0.54,-0.21,0.98,-1.53,-9.46
1777399489257,2116309,-0.77,-0.54,-0.21,0.85,-1.77,-9.58
1777399489257,2116319,-0.76,-0.54,-0.20,0.92,-3.17,-10.50
1777399489258,2116329,-0.77,-0.54,-0.19,1.22,-5.74,-10.50
1777399489258,2116339,-0.77,-0.53,-0.19,1.53,-8.73,-10.99
1777399489258,2116349,-0.75,-0.53,-0.19,1.34,-10.68,-11.60
1777399489258,2116359,-0.75,-0.53,-0.19,0.92,-11.41,-11.11
1777399489259,2116369,-0.74,-0.53,-0.18,0.12,-11.35,-10.25
1777399489259,2116379,-0.74,-0.54,-0.18,-1.04,-11.78,-9.22
1777399489259,2116389,-0.74,-0.55,-0.19,-1.59,-12.21,-8.48
1777399489259,2116399,-0.74,-0.55,-0.18,-0.67,-11.84,-8.30
1777399489259,2116409,-0.74,-0.55,-0.18,0.67,-11.54,-7.57
1777399489260,2116419,-0.75,-0.55,-0.18,1.22,-11.78,-6.47
1777399489260,2116429,-0.76,-0.54,-0.18,1.10,-12.02,-4.82
1777399489260,2116449,-0.78,-0.54,-0.19,-0.43,-11.72,-4.82
1777399489260,2116469,-0.77,-0.56,-0.19,0.79,-12.63,-6.90
1777399489260,2116489,-0.75,-0.57,-0.18,1.77,-14.22,-10.31
1777399489261,2116499,-0.75,-0.57,-0.18,2.01,-15.56,-10.80
1777399489261,2116509,-0.75,-0.58,-0.20,2.56,-17.33,-11.05
1777399489261,2116519,-0.74,-0.58,-0.22,4.03,-18.07,-10.80
1777399489261,2116529,-0.75,-0.58,-0.23,6.35,-17.70,-10.07
1777399489261,2116539,-0.76,-0.58,-0.23,9.40,-16.60,-9.28
1777399489262,2116549,-0.77,-0.58,-0.22,11.84,-15.93,-8.54
1777399489262,2116559,-0.78,-0.59,-0.20,12.88,-15.87,-8.18
1777399489262,2116569,-0.79,-0.59,-0.20,13.37,-16.91,-8.24
1777399489262,2116579,-0.79,-0.60,-0.20,14.04,-18.25,-9.03
1777399489262,2116589,-0.78,-0.60,-0.20,15.20,-18.31,-10.38
1777399489263,2116599,-0.77,-0.60,-0.18,16.05,-17.27,-10.86
1777399489263,2116609,-0.77,-0.60,-0.17,16.48,-15.93,-9.52
1777399489263,2116619,-0.77,-0.61,-0.16,17.09,-14.59,-8.30
1777399489263,2116629,-0.78,-0.61,-0.14,17.40,-14.10,-7.51
1777399489263,2116639,-0.77,-0.61,-0.15,17.21,-15.44,-6.59
1777399489264,2116649,-0.77,-0.60,-0.16,17.40,-15.99,-5.86
1777399489264,2116659,-0.76,-0.59,-0.17,17.40,-14.83,-4.94
1777399489264,2116669,-0.75,-0.58,-0.17,16.30,-12.27,-3.85
1777399489264,2116679,-0.76,-0.58,-0.17,14.95,-9.28,-2.20
1777399489265,2116689,-0.75,-0.59,-0.16,13.98,-6.90,-0.49
1777399489265,2116699,-0.75,-0.60,-0.16,13.67,-5.74,0.24
1777399489265,2116709,-0.75,-0.61,-0.15,13.55,-6.10,0.18
1777399489265,2116719,-0.74,-0.61,-0.15,13.43,-7.08,0.12
1777399489265,2116729,-0.73,-0.61,-0.15,13.06,-8.54,0.73
1777399489266,2116739,-0.72,-0.61,-0.18,12.08,-8.97,1.46
1777399489266,2116749,-0.73,-0.60,-0.20,11.84,-7.02,2.69
1777399489266,2116759,-0.74,-0.60,-0.22,12.51,-3.30,4.46
1777399489266,2116769,-0.75,-0.59,-0.22,13.49,0.85,6.29
1777399489267,2116789,-0.79,-0.61,-0.18,14.40,0.73,6.53
1777399489267,2116809,-0.81,-0.62,-0.16,16.48,-7.26,1.40
1777399489267,2116829,-0.77,-0.61,-0.15,17.40,-10.68,-2.69
1777399489267,2116849,-0.76,-0.61,-0.14,14.71,-8.36,-1.28
1777399489267,2116859,-0.75,-0.61,-0.13,13.00,-6.84,0.00
1777399489267,2116869,-0.75,-0.61,-0.13,10.68,-5.43,0.92
1777399489268,2116879,-0.75,-0.61,-0.12,8.54,-4.52,1.71
1777399489268,2116889,-0.76,-0.61,-0.13,7.63,-4.39,1.53
1777399489268,2116899,-0.75,-0.61,-0.13,7.75,-4.15,0.12
1777399489268,2116909,-0.76,-0.61,-0.12,8.06,-3.97,-0.67
1777399489268,2116919,-0.77,-0.60,-0.11,8.79,-4.46,-1.04
1777399489268,2116929,-0.77,-0.60,-0.10,8.36,-6.10,-0.92
1777399489269,2116939,-0.78,-0.60,-0.10,6.96,-8.54,-1.28
1777399489269,2116949,-0.77,-0.59,-0.13,5.31,-10.80,-1.89
1777399489269,2116959,-0.77,-0.60,-0.14,4.46,-11.78,-1.77
1777399489269,2116969,-0.77,-0.60,-0.14,4.27,-11.60,-0.85
1777399489269,2116979,-0.78,-0.59,-0.13,3.78,-11.41,-0.67
1777399489269,2116989,-0.78,-0.59,-0.13,2.93,-11.78,-0.73
1777399489270,2116999,-0.79,-0.60,-0.13,2.56,-11.90,-1.53
1777399489270,2117009,-0.79,-0.59,-0.12,2.81,-11.72,-2.93
1777399489270,2117019,-0.79,-0.59,-0.12,3.23,-11.60,-3.91
1777399489270,2117029,-0.79,-0.59,-0.11,3.42,-11.54,-5.19
1777399489270,2117039,-0.79,-0.59,-0.09,3.11,-12.15,-5.98
1777399489271,2117049,-0.78,-0.60,-0.09,1.71,-13.55,-6.10
1777399489271,2117059,-0.77,-0.60,-0.10,-0.43,-14.22,-6.35
1777399489271,2117069,-0.77,-0.61,-0.11,-1.71,-13.92,-5.98
1777399489271,2117079,-0.78,-0.62,-0.10,-2.32,-13.06,-4.82
1777399489271,2117089,-0.80,-0.62,-0.10,-2.01,-12.70,-4.15
1777399489271,2117099,-0.81,-0.62,-0.10,-1.53,-12.39,-5.31
1777399489272,2117109,-0.81,-0.61,-0.09,-0.73,-11.90,-7.26
1777399489272,2117119,-0.81,-0.60,-0.07,-0.37,-11.66,-9.77
1777399489272,2117139,-0.80,-0.60,-0.06,-2.69,-14.77,-11.47
1777399489272,2117159,-0.79,-0.61,-0.07,-4.52,-16.36,-11.29
1777399489272,2117179,-0.80,-0.61,-0.07,-3.72,-14.04,-10.25
1777399489273,2117199,-0.80,-0.60,-0.06,-3.17,-10.86,-9.95
1777399489273,2117209,-0.80,-0.60,-0.06,-3.05,-9.83,-9.95
1777399489273,2117219,-0.79,-0.60,-0.06,-3.30,-9.64,-10.13
1777399489273,2117229,-0.78,-0.60,-0.06,-3.66,-9.46,-10.19
1777399489273,2117239,-0.77,-0.60,-0.06,-3.60,-8.97,-9.77
1777399489273,2117249,-0.77,-0.60,-0.07,-3.54,-8.97,-9.03
1777399489274,2117259,-0.76,-0.60,-0.07,-3.48,-8.85,-8.67
1777399489274,2117269,-0.75,-0.60,-0.08,-3.05,-8.36,-8.24
1777399489274,2117279,-0.76,-0.59,-0.07,-2.44,-7.57,-7.08
1777399489274,2117289,-0.78,-0.59,-0.07,-1.83,-7.14,-5.86
1777399489274,2117299,-0.78,-0.58,-0.07,-1.71,-7.02,-5.62
1777399489274,2117309,-0.79,-0.58,-0.08,-1.40,-6.53,-5.74
1777399489275,2117319,-0.79,-0.57,-0.08,-0.49,-5.62,-5.68
1777399489275,2117329,-0.80,-0.57,-0.07,0.55,-5.13,-5.31
1777399489275,2117339,-0.80,-0.57,-0.07,0.61,-5.49,-5.07
1777399489275,2117349,-0.80,-0.58,-0.08,0.55,-6.23,-5.07
1777399489275,2117359,-0.79,-0.58,-0.08,1.40,-6.71,-5.13
1777399489275,2117369,-0.79,-0.58,-0.08,1.95,-7.02,-4.88
1777399489276,2117379,-0.79,-0.57,-0.08,2.08,-6.77,-4.70
1777399489276,2117389,-0.79,-0.58,-0.09,2.32,-6.04,-3.85
1777399489276,2117399,-0.79,-0.58,-0.09,2.69,-4.76,-3.11
1777399489276,2117409,-0.79,-0.58,-0.09,3.23,-3.11,-3.17
1777399489276,2117419,-0.79,-0.58,-0.09,3.72,-1.89,-2.81
1777399489276,2117429,-0.78,-0.58,-0.09,4.58,-1.34,-2.87
1777399489277,2117439,-0.78,-0.58,-0.09,5.68,-1.46,-2.99
1777399489277,2117449,-0.79,-0.58,-0.08,6.16,-2.26,-2.75
1777399489277,2117459,-0.79,-0.59,-0.08,5.92,-3.66,-2.75
1777399489277,2117479,-0.78,-0.59,-0.10,7.14,-2.81,-2.81
1777399489277,2117499,-0.79,-0.58,-0.08,7.57,-1.53,-2.26
1777399489277,2117519,-0.77,-0.58,-0.08,7.08,-2.50,-2.20
1777399489277,2117539,-0.75,-0.58,-0.08,6.29,-3.30,-0.85
1777399489278,2117549,-0.75,-0.58,-0.08,5.13,-2.81,0.12
1777399489278,2117559,-0.76,-0.58,-0.07,4.09,-2.69,1.59
1777399489278,2117569,-0.77,-0.59,-0.08,3.60,-3.23,2.44
1777399489278,2117579,-0.78,-0.59,-0.08,3.91,-3.78,1.83
1777399489278,2117589,-0.79,-0.59,-0.08,4.70,-4.03,0.49
1777399489278,2117599,-0.79,-0.60,-0.09,5.37,-4.46,-0.61
1777399489278,2117609,-0.79,-0.59,-0.09,5.68,-4.76,-1.46
1777399489279,2117619,-0.79,-0.59,-0.10,5.68,-4.33,-2.08
1777399489279,2117629,-0.79,-0.59,-0.09,5.80,-3.72,-2.20
1777399489279,2117639,-0.79,-0.58,-0.08,5.43,-3.60,-1.89
1777399489279,2117649,-0.79,-0.58,-0.08,4.70,-4.33,-1.71
1777399489279,2117659,-0.79,-0.58,-0.09,3.54,-5.13,-2.01
1777399489279,2117669,-0.78,-0.59,-0.10,2.62,-5.68,-2.44
1777399489280,2117679,-0.78,-0.59,-0.10,2.44,-5.37,-3.42
1777399489280,2117689,-0.77,-0.59,-0.10,2.50,-4.70,-4.76
1777399489280,2117699,-0.77,-0.60,-0.09,2.44,-4.82,-4.52
1777399489280,2117709,-0.77,-0.60,-0.09,2.26,-5.43,-3.60
1777399489280,2117719,-0.77,-0.60,-0.09,1.83,-5.86,-4.03
1777399489280,2117729,-0.77,-0.60,-0.09,1.40,-5.92,-4.52
1777399489280,2117739,-0.78,-0.60,-0.10,1.59,-6.16,-3.72
1777399489281,2117749,-0.79,-0.59,-0.08,2.14,-6.29,-3.05
1777399489281,2117759,-0.79,-0.60,-0.08,1.46,-6.59,-3.60
1777399489281,2117769,-0.79,-0.59,-0.08,-0.06,-7.08,-4.21
1777399489281,2117779,-0.80,-0.59,-0.08,-0.92,-6.71,-4.76
1777399489281,2117789,-0.80,-0.59,-0.08,-1.28,-6.35,-5.13
1777399489281,2117799,-0.80,-0.59,-0.07,-1.71,-6.16,-5.62
1777399489282,2117809,-0.80,-0.59,-0.07,-2.44,-6.59,-5.86
1777399489282,2117829,-0.80,-0.59,-0.08,-3.17,-8.00,-6.65
1777399489282,2117849,-0.80,-0.58,-0.08,-3.60,-6.65,-7.02
1777399489282,2117869,-0.79,-0.58,-0.08,-4.64,-7.39,-5.19
1777399489282,2117889,-0.79,-0.58,-0.09,-5.62,-7.45,-4.76
1777399489282,2117899,-0.78,-0.58,-0.09,-5.49,-6.84,-4.94
1777399489282,2117909,-0.78,-0.58,-0.09,-5.43,-6.77,-4.70
1777399489283,2117919,-0.78,-0.58,-0.10,-5.43,-6.41,-4.82
1777399489283,2117929,-0.78,-0.58,-0.09,-4.82,-5.74,-4.88
1777399489283,2117939,-0.79,-0.58,-0.08,-3.85,-5.92,-4.52
1777399489283,2117949,-0.80,-0.58,-0.08,-3.72,-6.90,-4.64
1777399489283,2117959,-0.80,-0.58,-0.09,-4.15,-8.06,-5.13
1777399489283,2117969,-0.79,-0.58,-0.09,-3.78,-8.00,-5.00
1777399489284,2117979,-0.79,-0.57,-0.09,-3.54,-6.90,-4.09
1777399489284,2117989,-0.79,-0.57,-0.09,-4.27,-5.74,-3.42
1777399489284,2117999,-0.78,-0.57,-0.10,-5.00,-4.58,-3.54
1777399489284,2118009,-0.78,-0.58,-0.10,-4.27,-3.30,-3.91
1777399489284,2118019,-0.77,-0.58,-0.10,-2.81,-2.99,-3.91
1777399489284,2118029,-0.77,-0.59,-0.09,-1.89,-4.27,-4.52
1777399489284,2118039,-0.78,-0.59,-0.09,-1.40,-6.53,-5.19
1777399489285,2118049,-0.77,-0.58,-0.10,-0.61,-8.06,-5.07
1777399489285,2118059,-0.78,-0.58,-0.10,-0.06,-8.12,-4.33
1777399489285,2118069,-0.79,-0.58,-0.09,-0.49,-7.14,-3.85
1777399489285,2118079,-0.79,-0.58,-0.09,-1.40,-6.04,-3.60
1777399489285,2118089,-0.80,-0.58,-0.10,-1.95,-5.00,-2.99
1777399489285,2118099,-0.80,-0.57,-0.09,-1.83,-3.54,-2.50
1777399489285,2118109,-0.82,-0.58,-0.09,-1.59,-2.81,-2.14
1777399489286,2118119,-0.82,-0.57,-0.09,-1.28,-2.99,-3.05
1777399489286,2118129,-0.81,-0.57,-0.09,-1.28,-3.72,-4.33
1777399489286,2118139,-0.81,-0.57,-0.10,-0.61,-4.88,-4.58
1777399489286,2118149,-0.81,-0.57,-0.10,0.37,-5.80,-4.88
1777399489286,2118169,-0.78,-0.56,-0.11,0.85,-4.15,-3.48
1777399489286,2118189,-0.78,-0.56,-0.11,-0.18,-3.23,-2.99
1777399489287,2118209,-0.78,-0.57,-0.10,0.37,-3.78,-1.95
1777399489287,2118229,-0.78,-0.58,-0.11,1.16,-5.37,-3.05
1777399489287,2118239,-0.78,-0.58,-0.10,1.95,-5.13,-3.48
1777399489287,2118249,-0.78,-0.57,-0.10,2.01,-4.94,-2.81
1777399489287,2118259,-0.79,-0.57,-0.10,1.28,-4.70,-1.89
1777399489287,2118269,-0.80,-0.57,-0.10,1.04,-3.97,-1.46
1777399489287,2118279,-0.80,-0.57,-0.10,0.85,-3.05,-1.53
1777399489288,2118289,-0.81,-0.57,-0.09,0.92,-2.81,-1.59
1777399489288,2118299,-0.81,-0.57,-0.09,0.61,-3.54,-2.01
1777399489288,2118309,-0.80,-0.57,-0.10,-0.06,-4.27,-2.32
1777399489288,2118319,-0.80,-0.57,-0.11,-0.12,-4.58,-2.20
1777399489288,2118329,-0.79,-0.57,-0.11,0.37,-4.03,-2.56
1777399489288,2118339,-0.78,-0.57,-0.11,0.67,-3.42,-2.87
1777399489288,2118349,-0.77,-0.56,-0.11,0.55,-3.42,-2.20
1777399489289,2118359,-0.78,-0.56,-0.12,-0.12,-3.48,-1.28
1777399489289,2118369,-0.79,-0.56,-0.12,-0.24,-3.42,-0.98
1777399489289,2118379,-0.79,-0.56,-0.11,0.12,-3.30,-1.22
1777399489289,2118389,-0.79,-0.56,-0.11,0.24,-3.85,-1.28
1777399489289,2118399,-0.80,-0.56,-0.11,0.00,-4.39,-1.22
1777399489289,2118409,-0.80,-0.56,-0.11,0.37,-4.58,-1.53
1777399489289,2118419,-0.80,-0.55,-0.11,0.61,-4.58,-1.34
1777399489290,2118429,-0.80,-0.56,-0.12,0.61,-4.21,-1.34
1777399489290,2118439,-0.80,-0.55,-0.12,0.98,-3.48,-2.20
1777399489290,2118449,-0.80,-0.56,-0.11,1.34,-2.87,-2.99
1777399489290,2118459,-0.80,-0.56,-0.11,1.59,-3.23,-3.23
1777399489290,2118469,-0.79,-0.56,-0.11,1.95,-3.85,-3.48
1777399489290,2118479,-0.79,-0.56,-0.11,1.89,-4.46,-4.03
1777399489290,2118489,-0.78,-0.56,-0.11,1.28,-5.68,-3.91
1777399489291,2118499,-0.78,-0.56,-0.11,0.85,-6.47,-2.75
1777399489291,2118519,-0.79,-0.57,-0.12,1.77,-5.31,-4.27
1777399489291,2118539,-0.80,-0.57,-0.11,1.53,-6.47,-3.60
1777399489291,2118559,-0.80,-0.56,-0.12,1.65,-6.23,-4.39
1777399489291,2118579,-0.81,-0.56,-0.12,0.61,-4.94,-3.78
1777399489291,2118589,-0.81,-0.56,-0.12,0.67,-4.58,-4.09
1777399489291,2118599,-0.81,-0.56,-0.12,1.22,-4.33,-4.64
1777399489291,2118609,-0.81,-0.56,-0.12,1.34,-4.52,-4.88
1777399489292,2118619,-0.82,-0.55,-0.12,1.10,-5.37,-4.82
1777399489292,2118629,-0.81,-0.55,-0.12,1.04,-6.10,-4.76
1777399489292,2118639,-0.81,-0.56,-0.13,1.28,-6.29,-5.49
1777399489292,2118649,-0.80,-0.56,-0.13,1.59,-5.62,-5.98
1777399489292,2118659,-0.80,-0.56,-0.13,1.77,-4.58,-5.74
1777399489292,2118669,-0.80,-0.56,-0.12,2.01,-3.85,-5.13
1777399489292,2118679,-0.80,-0.56,-0.11,2.20,-3.78,-5.00
1777399489292,2118689,-0.80,-0.56,-0.10,1.59,-4.64,-5.07
1777399489293,2118699,-0.80,-0.56,-0.11,1.10,-6.04,-4.64
1777399489293,2118709,-0.80,-0.56,-0.12,1.28,-6.29,-5.25
1777399489293,2118719,-0.80,-0.56,-0.11,1.95,-5.37,-6.29
1777399489293,2118729,-0.80,-0.56,-0.10,2.14,-4.82,-5.74
1777399489293,2118739,-0.80,-0.56,-0.10,1.71,-4.94,-5.19
1777399489293,2118749,-0.81,-0.56,-0.11,1.89,-5.00,-5.68
1777399489293,2118759,-0.80,-0.56,-0.10,2.50,-5.07,-6.16
1777399489294,2118769,-0.80,-0.55,-0.10,2.50,-5.19,-6.65
1777399489294,2118779,-0.80,-0.56,-0.11,2.26,-4.88,-7.32
1777399489294,2118789,-0.79,-0.56,-0.10,2.56,-4.33,-7.45
1777399489294,2118799,-0.79,-0.56,-0.10,2.69,-4.15,-7.08
1777399489294,2118809,-0.79,-0.56,-0.10,2.44,-4.70,-6.77
1777399489294,2118819,-0.79,-0.56,-0.10,2.20,-5.55,-6.77
1777399489294,2118829,-0.79,-0.56,-0.11,2.26,-6.16,-6.96
1777399489294,2118839,-0.78,-0.56,-0.11,2.38,-5.98,-7.20
1777399489295,2118859,-0.79,-0.56,-0.11,2.62,-4.94,-6.90
1777399489295,2118879,-0.79,-0.56,-0.11,3.05,-6.16,-6.16
1777399489295,2118899,-0.79,-0.56,-0.11,3.60,-5.31,-6.59
1777399489295,2118919,-0.79,-0.56,-0.11,3.91,-4.52,-6.96
1777399489295,2118929,-0.79,-0.56,-0.10,4.15,-5.07,-7.02
1777399489295,2118939,-0.80,-0.56,-0.10,4.46,-6.23,-6.59
1777399489295,2118949,-0.79,-0.56,-0.10,4.76,-7.39,-5.98
1777399489296,2118959,-0.79,-0.56,-0.11,4.15,-7.93,-5.92
1777399489296,2118969,-0.79,-0.57,-0.11,3.72,-7.32,-5.49
1777399489296,2118979,-0.80,-0.57,-0.11,4.15,-5.86,-4.88
1777399489296,2118989,-0.80,-0.57,-0.10,4.52,-4.76,-4.52
1777399489296,2118999,-0.80,-0.57,-0.10,4.03,-4.58,-4.64
1777399489296,2119009,-0.80,-0.57,-0.11,3.36,-5.00,-4.58
1777399489296,2119019,-0.81,-0.57,-0.11,3.05,-5.00,-4.33
1777399489297,2119029,-0.81,-0.57,-0.12,3.17,-4.64,-4.27
1777399489297,2119039,-0.81,-0.57,-0.11,3.72,-4.09,-4.76
1777399489297,2119049,-0.81,-0.57,-0.11,4.15,-4.15,-5.55
1777399489297,2119059,-0.80,-0.57,-0.11,4.58,-4.76,-5.74
1777399489297,2119069,-0.80,-0.57,-0.11,4.33,-5.43,-5.80
1777399489297,2119079,-0.80,-0.57,-0.11,3.60,-5.62,-5.37
1777399489297,2119089,-0.80,-0.57,-0.11,3.42,-5.31,-4.88
1777399489297,2119099,-0.80,-0.57,-0.11,3.48,-4.15,-4.70
1777399489298,2119109,-0.80,-0.57,-0.11,3.36,-3.42,-4.70
1777399489298,2119119,-0.80,-0.57,-0.11,3.48,-3.05,-4.94
1777399489298,2119129,-0.79,-0.57,-0.11,3.85,-3.05,-5.37
1777399489298,2119139,-0.79,-0.57,-0.11,4.15,-3.17,-5.62
1777399489298,2119149,-0.78,-0.57,-0.12,4.52,-3.54,-5.68
1777399489298,2119159,-0.78,-0.57,-0.11,4.88,-3.72,-6.29
1777399489298,2119169,-0.78,-0.57,-0.10,4.88,-4.27,-6.53
1777399489299,2119179,-0.77,-0.57,-0.10,4.39,-5.43,-6.16
1777399489299,2119189,-0.77,-0.57,-0.11,3.85,-6.10,-4.94
1777399489299,2119209,-0.77,-0.56,-0.11,4.58,-2.93,-3.60
1777399489299,2119229,-0.81,-0.57,-0.09,5.49,-4.58,-4.03
1777399489299,2119249,-0.79,-0.57,-0.09,5.49,-7.39,-4.58
1777399489299,2119269,-0.79,-0.58,-0.09,4.88,-7.51,-4.70
1777399489299,2119279,-0.80,-0.57,-0.08,4.27,-7.08,-4.70
1777399489299,2119289,-0.79,-0.58,-0.09,3.30,-7.57,-4.64
1777399489300,2119299,-0.79,-0.58,-0.10,2.81,-7.81,-4.52
1777399489300,2119309,-0.79,-0.57,-0.10,2.99,-7.20,-4.33
1777399489300,2119319,-0.79,-0.57,-0.10,2.87,-6.23,-3.91
1777399489300,2119329,-0.79,-0.57,-0.10,2.62,-5.86,-3.30
1777399489300,2119339,-0.79,-0.57,-0.11,2.62,-5.80,-3.54
1777399489300,2119349,-0.79,-0.57,-0.12,3.05,-5.55,-4.33
1777399489300,2119359,-0.79,-0.57,-0.11,3.66,-5.86,-4.64
1777399489300,2119369,-0.79,-0.57,-0.11,3.72,-6.59,-4.64
1777399489301,2119379,-0.79,-0.57,-0.12,3.97,-6.90,-4.94
1777399489301,2119389,-0.80,-0.57,-0.11,4.82,-6.59,-4.94
1777399489301,2119399,-0.80,-0.57,-0.10,5.00,-6.41,-4.70
1777399489301,2119409,-0.80,-0.57,-0.10,4.82,-6.35,-4.52
1777399489301,2119419,-0.80,-0.57,-0.10,4.70,-5.98,-4.58
1777399489301,2119429,-0.80,-0.57,-0.10,4.21,-5.74,-4.70
1777399489301,2119439,-0.80,-0.57,-0.09,3.72,-5.92,-4.64
1777399489302,2119449,-0.80,-0.57,-0.09,3.30,-6.35,-4.82
1777399489302,2119459,-0.80,-0.58,-0.08,3.17,-6.65,-5.07
1777399489302,2119469,-0.80,-0.57,-0.10,3.42,-7.32,-4.52
1777399489302,2119479,-0.79,-0.58,-0.11,3.91,-6.84,-4.64
1777399489302,2119489,-0.79,-0.57,-0.10,5.13,-5.25,-5.31
1777399489302,2119499,-0.80,-0.57,-0.09,5.74,-4.39,-5.19
1777399489302,2119509,-0.80,-0.57,-0.08,5.68,-4.82,-5.07
1777399489303,2119519,-0.80,-0.57,-0.08,5.13,-5.68,-5.19
1777399489303,2119529,-0.79,-0.57,-0.09,4.03,-6.35,-5.68
1777399489303,2119539,-0.78,-0.58,-0.09,2.93,-6.41,-4.82
1777399489303,2119559,-0.79,-0.58,-0.08,1.65,-5.55,-4.58
1777399489303,2119579,-0.79,-0.59,-0.07,2.14,-5.49,-4.82
1777399489303,2119599,-0.79,-0.59,-0.07,1.83,-6.96,-4.70
1777399489303,2119609,-0.79,-0.58,-0.07,1.59,-7.69,-4.94
1777399489303,2119619,-0.79,-0.58,-0.07,1.22,-8.06,-4.94
1777399489303,2119629,-0.79,-0.57,-0.07,0.31,-8.12,-3.85
1777399489304,2119639,-0.78,-0.57,-0.08,-0.98,-8.06,-2.50
1777399489304,2119649,-0.79,-0.57,-0.09,-1.34,-7.14,-1.10
1777399489304,2119659,-0.79,-0.57,-0.09,-1.10,-5.62,-1.53
1777399489304,2119669,-0.80,-0.57,-0.09,-0.61,-4.33,-3.60
1777399489304,2119679,-0.80,-0.56,-0.08,0.55,-4.15,-4.64
1777399489304,2119689,-0.80,-0.57,-0.08,1.77,-5.31,-5.25
1777399489304,2119699,-0.80,-0.57,-0.07,2.26,-6.84,-5.86
1777399489304,2119709,-0.79,-0.57,-0.08,2.44,-8.48,-5.80
1777399489305,2119719,-0.79,-0.57,-0.08,2.50,-9.22,-5.80
1777399489305,2119729,-0.78,-0.57,-0.08,2.01,-8.79,-5.92
1777399489305,2119739,-0.77,-0.57,-0.07,1.34,-7.75,-5.43
1777399489305,2119749,-0.77,-0.58,-0.08,0.61,-7.02,-4.46
1777399489305,2119759,-0.78,-0.58,-0.08,0.49,-6.16,-3.54
1777399489305,2119769,-0.78,-0.58,-0.08,1.04,-5.62,-3.05
1777399489305,2119779,-0.79,-0.58,-0.08,1.40,-5.43,-3.60
1777399489305,2119789,-0.81,-0.58,-0.08,1.65,-5.55,-4.27
1777399489306,2119799,-0.81,-0.58,-0.09,2.44,-5.80,-4.27
1777399489306,2119809,-0.82,-0.57,-0.09,2.99,-5.92,-4.27
1777399489306,2119819,-0.82,-0.57,-0.09,3.36,-5.49,-3.85
1777399489306,2119829,-0.84,-0.57,-0.09,3.30,-4.88,-3.05
1777399489306,2119839,-0.84,-0.56,-0.09,2.93,-4.21,-3.11
1777399489306,2119849,-0.84,-0.56,-0.09,2.75,-3.48,-3.30
1777399489306,2119859,-0.84,-0.56,-0.09,3.17,-3.05,-3.05
1777399489306,2119869,-0.84,-0.55,-0.09,4.21,-2.62,-3.23
1777399489307,2119879,-0.84,-0.55,-0.09,4.52,-2.20,-5.19
1777399489307,2119899,-0.82,-0.54,-0.10,5.86,-0.37,-4.94
1777399489307,2119919,-0.81,-0.54,-0.09,5.62,0.98,-2.93
1777399489307,2119939,-0.79,-0.54,-0.11,4.52,1.53,-1.10
1777399489307,2119959,-0.78,-0.55,-0.10,5.98,2.75,-1.65
1777399489307,2119969,-0.78,-0.56,-0.09,6.77,1.22,-2.08
1777399489307,2119979,-0.77,-0.56,-0.09,7.69,-0.92,-2.50
1777399489307,2119989,-0.77,-0.56,-0.09,8.67,-2.56,-2.44
1777399489307,2119999,-0.77,-0.56,-0.09,8.67,-3.23,-1.95
1777399489308,2120009,-0.77,-0.56,-0.09,7.75,-2.93,-1.65
1777399489308,2120019,-0.77,-0.56,-0.09,6.53,-2.14,-1.40
1777399489308,2120029,-0.78,-0.57,-0.09,5.74,-1.28,-0.43
1777399489308,2120039,-0.79,-0.57,-0.08,5.55,-0.79,0.37
1777399489308,2120049,-0.80,-0.58,-0.08,5.37,-1.04,-0.55
1777399489308,2120059,-0.80,-0.58,-0.09,5.68,-2.14,-2.20
1777399489308,2120069,-0.80,-0.58,-0.09,6.53,-3.42,-3.54
1777399489308,2120079,-0.79,-0.57,-0.09,7.57,-4.52,-4.33
1777399489309,2120089,-0.79,-0.57,-0.09,8.00,-5.00,-5.07
1777399489309,2120099,-0.79,-0.57,-0.09,7.39,-5.31,-5.43
1777399489309,2120109,-0.79,-0.57,-0.09,6.59,-5.55,-5.43
1777399489309,2120119,-0.79,-0.57,-0.08,5.62,-5.74,-5.31
1777399489309,2120129,-0.79,-0.57,-0.08,4.52,-6.35,-5.13
1777399489309,2120139,-0.79,-0.58,-0.08,3.36,-6.84,-5.13
1777399489309,2120149,-0.78,-0.58,-0.09,2.08,-6.84,-5.55
1777399489309,2120159,-0.79,-0.58,-0.09,1.46,-6.53,-6.16
1777399489310,2120169,-0.78,-0.59,-0.09,1.71,-5.86,-6.71
1777399489310,2120179,-0.78,-0.59,-0.09,1.40,-5.68,-7.51
1777399489310,2120189,-0.78,-0.59,-0.09,1.10,-6.41,-7.81
1777399489310,2120199,-0.78,-0.59,-0.09,0.73,-7.75,-7.32
1777399489310,2120209,-0.78,-0.59,-0.09,0.18,-8.61,-7.02
1777399489310,2120219,-0.79,-0.59,-0.09,-0.31,-8.73,-6.65
1777399489310,2120229,-0.79,-0.58,-0.08,-0.73,-8.42,-5.98
1777399489310,2120249,-0.79,-0.59,-0.07,-1.46,-8.18,-7.45
1777399489310,2120269,-0.79,-0.59,-0.08,-0.37,-8.42,-7.39
1777399489311,2120289,-0.79,-0.59,-0.07,-0.18,-9.83,-7.93
1777399489311,2120299,-0.79,-0.59,-0.07,-1.22,-10.93,-7.57
1777399489311,2120309,-0.80,-0.58,-0.07,-1.83,-11.05,-6.77
1777399489311,2120319,-0.80,-0.58,-0.07,-1.89,-10.01,-6.10
1777399489311,2120329,-0.81,-0.57,-0.07,-1.59,-8.61,-6.04
1777399489311,2120339,-0.81,-0.57,-0.07,-1.95,-7.51,-6.53
1777399489311,2120349,-0.81,-0.57,-0.08,-2.32,-6.77,-6.53
1777399489311,2120359,-0.81,-0.57,-0.08,-2.26,-6.23,-6.04
1777399489312,2120369,-0.81,-0.57,-0.08,-2.08,-6.29,-6.04
1777399489312,2120379,-0.81,-0.57,-0.08,-1.46,-6.47,-6.47
1777399489312,2120389,-0.81,-0.57,-0.08,-0.98,-6.84,-6.23
1777399489312,2120399,-0.81,-0.57,-0.08,-1.10,-7.20,-6.53
1777399489312,2120409,-0.80,-0.57,-0.09,-1.65,-7.20,-6.23
1777399489312,2120419,-0.81,-0.57,-0.09,-1.77,-6.59,-4.88
1777399489312,2120429,-0.81,-0.57,-0.08,-1.65,-5.37,-4.03
1777399489312,2120439,-0.81,-0.57,-0.08,-2.01,-4.39,-3.97
1777399489312,2120449,-0.82,-0.57,-0.09,-2.44,-3.66,-4.39
1777399489313,2120459,-0.82,-0.57,-0.09,-1.59,-2.50,-4.58
1777399489313,2120469,-0.82,-0.57,-0.08,-0.49,-1.77,-4.64
1777399489313,2120479,-0.81,-0.57,-0.08,-0.55,-2.44,-4.94
1777399489313,2120489,-0.80,-0.57,-0.10,-0.79,-3.48,-5.37
1777399489313,2120499,-0.78,-0.57,-0.10,-0.18,-3.97,-5.19
1777399489313,2120509,-0.77,-0.56,-0.10,0.55,-3.85,-4.39
1777399489313,2120519,-0.77,-0.57,-0.10,1.04,-3.36,-4.27
1777399489313,2120529,-0.78,-0.57,-0.09,1.46,-2.69,-4.33
1777399489314,2120539,-0.79,-0.57,-0.08,1.89,-2.44,-3.66
1777399489314,2120549,-0.79,-0.57,-0.07,2.14,-2.75,-3.36
1777399489314,2120559,-0.80,-0.57,-0.06,1.46,-3.42,-3.05
1777399489314,2120569,-0.80,-0.57,-0.05,0.49,-4.58,-2.38
1777399489314,2120589,-0.81,-0.57,-0.05,-1.77,-3.97,-2.62
1777399489314,2120609,-0.81,-0.58,-0.07,-2.26,-3.17,-3.11
1777399489314,2120629,-0.80,-0.56,-0.09,-2.93,-1.10,-4.94
1777399489314,2120649,-0.79,-0.55,-0.13,-2.81,0.00,-4.76
1777399489315,2120659,-0.79,-0.54,-0.14,-1.89,0.55,-4.76
1777399489315,2120669,-0.79,-0.53,-0.17,-0.92,0.49,-4.46
1777399489315,2120679,-0.79,-0.53,-0.19,0.43,0.79,-4.09
1777399489315,2120689,-0.79,-0.53,-0.19,1.95,0.85,-4.39
1777399489315,2120699,-0.80,-0.53,-0.19,4.15,-0.31,-4.88
1777399489315,2120709,-0.80,-0.53,-0.18,6.71,-2.87,-5.37
1777399489315,2120719,-0.80,-0.53,-0.18,9.28,-5.92,-6.10
1777399489315,2120729,-0.79,-0.54,-0.17,11.60,-8.48,-7.26
1777399489316,2120739,-0.79,-0.54,-0.15,13.61,-10.50,-8.18
1777399489316,2120749,-0.79,-0.55,-0.14,14.59,-12.51,-7.69
1777399489316,2120759,-0.79,-0.55,-0.12,15.38,-13.61,-7.26
1777399489316,2120769,-0.80,-0.56,-0.10,15.93,-14.04,-7.20
1777399489316,2120779,-0.81,-0.57,-0.07,16.36,-14.77,-7.14
1777399489316,2120789,-0.81,-0.58,-0.05,16.11,-17.58,-7.32
1777399489316,2120799,-0.81,-0.59,-0.04,15.32,-21.55,-8.30
1777399489316,2120809,-0.81,-0.59,-0.03,14.65,-24.90,-9.58
1777399489317,2120819,-0.80,-0.59,-0.03,13.79,-27.65,-10.56
1777399489317,2120829,-0.79,-0.60,-0.03,12.94,-29.30,-10.74
1777399489317,2120839,-0.79,-0.60,-0.02,12.39,-30.21,-10.68
1777399489317,2120849,-0.80,-0.60,-0.00,11.96,-30.21,-10.93
1777399489317,2120859,-0.80,-0.61,0.00,10.50,-31.01,-11.17
1777399489317,2120869,-0.79,-0.61,0.00,8.73,-32.59,-10.86
1777399489317,2120879,-0.79,-0.62,0.00,7.81,-34.42,-9.77
1777399489317,2120889,-0.79,-0.62,0.01,7.63,-36.13,-8.79
1777399489318,2120899,-0.78,-0.62,0.01,7.08,-36.99,-8.42
1777399489318,2120909,-0.78,-0.61,0.01,6.41,-36.01,-8.61
1777399489318,2120919,-0.78,-0.61,0.01,5.43,-17.76,-8.79
1777399489318,2120939,-0.78,-0.61,0.02,1.04,-20.87,-9.34
1777399489318,2120959,-0.76,-0.59,0.02,-1.22,-8.79,-5.62
1777399489318,2120979,-0.77,-0.59,0.04,-4.76,4.52,-1.83
1777399489318,2120989,-0.76,-0.59,0.02,-7.08,9.46,-0.06
1777399489318,2120999,-0.76,-0.58,0.00,-8.67,15.93,2.38
1777399489318,2121009,-0.76,-0.58,-0.01,-9.64,23.99,5.55
1777399489319,2121019,-0.77,-0.57,-0.02,-10.56,32.59,8.12
1777399489319,2121029,-0.77,-0.57,-0.03,-11.41,41.14,10.13
1777399489319,2121039,-0.78,-0.56,-0.03,-11.96,49.68,11.96
1777399489319,2121049,-0.79,-0.56,-0.05,-12.15,57.01,13.43
1777399489319,2121059,-0.79,-0.56,-0.06,-12.02,63.05,14.34
1777399489319,2121069,-0.81,-0.56,-0.06,-12.39,66.22,15.20
1777399489319,2121079,-0.82,-0.56,-0.05,-14.22,65.43,14.71
1777399489319,2121089,-0.81,-0.54,-0.08,-16.85,60.00,13.31
1777399489320,2121099,-0.81,-0.53,-0.11,-18.19,51.33,11.54
1777399489320,2121109,-0.80,-0.53,-0.15,-16.85,40.83,9.40
1777399489320,2121119,-0.79,-0.52,-0.18,-14.04,30.09,7.69
1777399489320,2121129,-0.79,-0.51,-0.20,-10.62,20.32,6.04
1777399489320,2121139,-0.80,-0.50,-0.23,-7.14,11.66,4.09
1777399489320,2121149,-0.80,-0.49,-0.25,-3.11,4.94,2.01
1777399489320,2121159,-0.79,-0.49,-0.25,0.49,0.24,0.67
1777399489320,2121169,-0.79,-0.48,-0.26,3.17,-3.11,0.49
1777399489320,2121179,-0.80,-0.48,-0.26,5.62,-5.13,0.49
1777399489321,2121189,-0.81,-0.48,-0.25,8.67,-5.68,0.49
1777399489321,2121199,-0.82,-0.49,-0.23,11.72,-5.07,1.10
1777399489321,2121209,-0.83,-0.49,-0.20,13.98,-4.52,1.83
1777399489321,2121219,-0.85,-0.50,-0.19,15.26,-4.82,1.40
1777399489321,2121229,-0.86,-0.50,-0.18,16.54,-5.19,0.06
1777399489321,2121239,-0.86,-0.51,-0.16,18.37,-5.37,-0.55
1777399489321,2121249,-0.86,-0.51,-0.15,19.96,-5.07,-1.16
1777399489321,2121259,-0.85,-0.51,-0.14,21.12,-4.46,-2.62
1777399489321,2121279,-0.83,-0.52,-0.11,21.06,-1.59,-3.42
1777399489322,2121299,-0.81,-0.53,-0.12,20.14,-0.92,-1.65
1777399489322,2121319,-0.79,-0.53,-0.11,19.29,1.59,1.04
1777399489322,2121339,-0.79,-0.56,-0.12,17.76,1.46,2.87
1777399489322,2121349,-0.80,-0.53,-0.12,17.27,0.43,2.14
1777399489322,2121359,-0.80,-0.53,-0.12,16.72,-0.49,1.83
1777399489322,2121369,-0.80,-0.53,-0.13,16.54,-1.04,1.40
1777399489322,2121379,-0.80,-0.52,-0.14,15.69,-1.16,1.83
1777399489322,2121389,-0.80,-0.52,-0.15,14.59,-0.55,2.99
1777399489322,2121399,-0.80,-0.52,-0.16,13.73,0.37,3.97
1777399489323,2121409,-0.80,-0.52,-0.16,13.12,1.28,4.76
1777399489323,2121419,-0.81,-0.52,-0.16,12.88,1.40,4.88
1777399489323,2121429,-0.81,-0.52,-0.16,12.82,0.79,4.46
1777399489323,2121439,-0.80,-0.53,-0.16,13.37,0.12,3.48
1777399489323,2121449,-0.80,-0.53,-0.15,14.40,-0.49,2.38
1777399489323,2121459,-0.80,-0.54,-0.14,15.14,-1.71,2.01
1777399489323,2121469,-0.79,-0.54,-0.14,15.26,-3.78,1.65
1777399489323,2121479,-0.80,-0.55,-0.13,14.71,-5.92,1.53
1777399489323,2121489,-0.80,-0.55,-0.12,14.16,-7.39,1.34
1777399489324,2121499,-0.81,-0.54,-0.12,13.43,-8.06,1.16
1777399489324,2121509,-0.81,-0.54,-0.12,11.96,-7.93,0.85
1777399489324,2121519,-0.81,-0.54,-0.12,10.25,-7.14,0.79
1777399489324,2121529,-0.82,-0.55,-0.11,9.40,-6.23,1.22
1777399489324,2121539,-0.82,-0.55,-0.11,9.28,-5.68,0.98
1777399489324,2121549,-0.83,-0.56,-0.10,9.52,-5.92,-0.55
1777399489324,2121559,-0.82,-0.56,-0.09,9.52,-6.96,-2.14
1777399489324,2121569,-0.82,-0.56,-0.09,8.91,-8.54,-2.99
1777399489324,2121579,-0.82,-0.56,-0.09,7.87,-9.70,-3.17
1777399489325,2121589,-0.82,-0.55,-0.09,6.71,-9.95,-2.69
1777399489325,2121599,-0.82,-0.55,-0.09,5.31,-8.91,-1.95
1777399489325,2121609,-0.83,-0.55,-0.08,3.42,-7.75,-1.46
1777399489325,2121629,-0.83,-0.55,-0.09,1.22,-7.39,-4.64
1777399489325,2121649,-0.82,-0.55,-0.09,1.28,-9.22,-4.88
1777399489325,2121669,-0.85,-0.54,-0.08,0.43,-9.70,-4.88
1777399489325,2121689,-0.85,-0.53,-0.09,-1.83,-8.00,-4.64
1777399489325,2121699,-0.86,-0.52,-0.09,-2.69,-6.29,-4.52
1777399489325,2121709,-0.87,-0.52,-0.09,-2.87,-4.64,-5.62
1777399489326,2121719,-0.86,-0.52,-0.09,-2.14,-3.91,-7.20
1777399489326,2121729,-0.85,-0.51,-0.09,-1.53,-4.46,-8.36
1777399489326,2121739,-0.83,-0.51,-0.10,-1.10,-5.43,-8.85
1777399489326,2121749,-0.82,-0.51,-0.10,-0.79,-5.98,-8.67
1777399489326,2121759,-0.81,-0.51,-0.10,-0.43,-6.10,-7.87
1777399489326,2121769,-0.81,-0.52,-0.10,0.06,-6.47,-7.02
1777399489326,2121779,-0.80,-0.52,-0.10,0.49,-6.90,-6.96
1777399489326,2121789,-0.80,-0.52,-0.08,0.55,-7.57,-6.53
1777399489327,2121799,-0.82,-0.52,-0.08,0.61,-8.54,-5.62
1777399489327,2121809,-0.82,-0.53,-0.09,0.98,-8.73,-5.86
1777399489327,2121819,-0.83,-0.52,-0.08,1.53,-8.00,-6.16
1777399489327,2121829,-0.84,-0.52,-0.08,1.83,-6.96,-5.62
1777399489327,2121839,-0.85,-0.52,-0.08,2.14,-5.68,-6.10
1777399489327,2121849,-0.85,-0.52,-0.08,2.38,-4.64,-7.14
1777399489327,2121859,-0.84,-0.52,-0.07,2.20,-4.82,-7.26
1777399489327,2121869,-0.83,-0.53,-0.08,1.59,-5.49,-7.14
1777399489327,2121879,-0.82,-0.52,-0.09,1.28,-5.86,-7.14
1777399489328,2121889,-0.82,-0.53,-0.09,1.16,-6.29,-6.71
1777399489328,2121899,-0.82,-0.53,-0.08,0.73,-7.02,-5.62
1777399489328,2121909,-0.82,-0.53,-0.10,0.18,-7.69,-4.88
1777399489328,2121919,-0.83,-0.53,-0.11,0.24,-6.96,-5.19
1777399489328,2121929,-0.83,-0.53,-0.11,1.83,-5.00,-6.47
1777399489328,2121939,-0.83,-0.52,-0.10,3.60,-2.81,-7.75
1777399489328,2121949,-0.84,-0.52,-0.09,4.21,-2.44,-8.00
1777399489328,2121969,-0.84,-0.52,-0.10,3.72,-5.19,-8.00
1777399489328,2121989,-0.82,-0.52,-0.09,1.83,-5.25,-5.86
1777399489328,2122009,-0.83,-0.53,-0.11,1.65,-4.09,-5.43
1777399489329,2122029,-0.82,-0.53,-0.09,4.88,-2.32,-8.73
1777399489329,2122039,-0.82,-0.52,-0.09,5.00,-3.72,-9.64
1777399489329,2122049,-0.82,-0.53,-0.10,4.82,-5.31,-9.03
1777399489329,2122059,-0.82,-0.52,-0.10,4.88,-5.74,-8.06
1777399489329,2122069,-0.82,-0.52,-0.10,4.39,-5.31,-7.32
1777399489329,2122079,-0.82,-0.52,-0.10,3.23,-5.07,-6.29
1777399489329,2122089,-0.82,-0.53,-0.10,2.20,-4.94,-5.25
1777399489329,2122099,-0.83,-0.54,-0.11,2.08,-4.94,-4.70
1777399489329,2122109,-0.83,-0.54,-0.11,2.87,-4.52,-5.19
1777399489330,2122119,-0.83,-0.52,-0.11,4.15,-3.54,-6.16
1777399489330,2122129,-0.83,-0.52,-0.11,4.03,-2.62,-7.02
1777399489330,2122139,-0.83,-0.52,-0.10,4.21,-2.50,-7.20
1777399489330,2122149,-0.83,-0.51,-0.09,4.33,-3.48,-6.53
1777399489330,2122159,-0.82,-0.51,-0.09,4.09,-4.88,-6.29
1777399489330,2122169,-0.80,-0.52,-0.10,3.17,-5.80,-6.41
1777399489330,2122179,-0.79,-0.52,-0.10,2.38,-5.74,-5.92
1777399489330,2122189,-0.78,-0.53,-0.10,1.46,-5.19,-5.25
1777399489330,2122199,-0.77,-0.53,-0.08,0.73,-5.19,-4.76
1777399489331,2122209,-0.77,-0.54,-0.08,0.43,-6.29,-3.97
1777399489331,2122219,-0.77,-0.55,-0.08,0.06,-7.87,-3.60
1777399489331,2122229,-0.77,-0.56,-0.08,0.37,-8.91,-3.97
1777399489331,2122239,-0.77,-0.57,-0.07,1.04,-9.52,-4.88
1777399489331,2122249,-0.77,-0.57,-0.07,0.85,-10.25,-5.13
1777399489331,2122259,-0.77,-0.58,-0.08,0.18,-10.99,-4.52
1777399489331,2122269,-0.78,-0.59,-0.08,-0.79,-11.17,-4.03
1777399489331,2122279,-0.79,-0.59,-0.08,-1.83,-10.99,-3.42
1777399489331,2122289,-0.80,-0.59,-0.08,-2.93,-10.74,-2.93
1777399489332,2122299,-0.82,-0.58,-0.08,-4.27,-10.62,-2.75
1777399489332,2122319,-0.86,-0.58,-0.10,-5.80,-8.48,-5.37
1777399489332,2122339,-0.88,-0.54,-0.10,-5.62,-6.04,-5.74
1777399489332,2122359,-0.90,-0.52,-0.12,-6.59,-4.88,-6.41
1777399489332,2122379,-0.88,-0.50,-0.13,-6.90,-1.46,-6.41
1777399489332,2122389,-0.87,-0.49,-0.13,-7.26,-0.18,-6.10
1777399489332,2122399,-0.85,-0.50,-0.14,-6.71,0.55,-6.16
1777399489332,2122409,-0.83,-0.50,-0.14,-4.94,0.98,-7.02
1777399489332,2122419,-0.81,-0.50,-0.14,-2.75,0.79,-7.63
1777399489333,2122429,-0.80,-0.50,-0.13,-0.85,-0.37,-7.75
1777399489333,2122439,-0.79,-0.51,-0.12,0.49,-2.14,-7.20
1777399489333,2122449,-0.78,-0.51,-0.12,1.53,-3.54,-6.23
1777399489333,2122459,-0.77,-0.51,-0.11,2.01,-4.15,-5.55
1777399489333,2122469,-0.77,-0.52,-0.11,1.77,-3.85,-4.94
1777399489333,2122479,-0.78,-0.52,-0.10,1.59,-3.42,-3.48
1777399489333,2122489,-0.79,-0.52,-0.09,1.28,-3.48,-2.14
1777399489333,2122499,-0.80,-0.53,-0.09,0.98,-3.97,-1.77
1777399489333,2122509,-0.81,-0.53,-0.10,1.28,-4.15,-2.50
1777399489334,2122519,-0.82,-0.54,-0.10,2.38,-4.09,-3.66
1777399489334,2122529,-0.82,-0.54,-0.10,3.54,-4.15,-5.07
1777399489334,2122539,-0.82,-0.54,-0.09,3.78,-4.82,-5.43
1777399489334,2122549,-0.82,-0.54,-0.09,3.54,-5.62,-4.82
1777399489334,2122559,-0.82,-0.54,-0.10,2.62,-6.16,-5.00
1777399489334,2122569,-0.82,-0.54,-0.10,1.77,-5.80,-5.55
1777399489334,2122579,-0.82,-0.54,-0.10,1.71,-4.94,-5.68
1777399489334,2122589,-0.82,-0.54,-0.09,0.92,-4.21,-5.80
1777399489334,2122599,-0.80,-0.55,-0.10,0.06,-4.15,-6.47
1777399489335,2122609,-0.79,-0.55,-0.10,0.31,-4.27,-7.14
1777399489335,2122619,-0.78,-0.55,-0.10,0.92,-4.70,-7.39
1777399489335,2122629,-0.78,-0.56,-0.09,0.67,-5.74,-7.26
1777399489335,2122639,-0.78,-0.56,-0.09,0.24,-7.32,-7.14
1777399489335,2122659,-0.78,-0.57,-0.09,-1.95,-11.29,-6.41
1777399489335,2122679,-0.78,-0.58,-0.08,-2.62,-11.66,-5.31
1777399489335,2122699,-0.81,-0.56,-0.08,-4.21,-10.62,-4.46
1777399489335,2122719,-0.84,-0.56,-0.09,-7.69,-8.24,-3.72
1777399489335,2122729,-0.85,-0.56,-0.10,-9.16,-7.20,-3.05
1777399489336,2122739,-0.86,-0.55,-0.10,-10.31,-6.59,-2.62
1777399489336,2122749,-0.86,-0.54,-0.11,-11.66,-6.53,-2.44
1777399489336,2122759,-0.86,-0.52,-0.12,-12.94,-6.23,-1.59
1777399489336,2122769,-0.88,-0.51,-0.14,-13.31,-5.00,-0.24
1777399489336,2122779,-0.88,-0.50,-0.14,-12.33,-2.87,0.12
1777399489336,2122789,-0.89,-0.48,-0.15,-11.35,-0.18,-0.31
1777399489336,2122799,-0.88,-0.47,-0.16,-10.07,2.32,-0.55
1777399489336,2122809,-0.87,-0.47,-0.16,-8.54,4.52,-0.55
1777399489336,2122819,-0.86,-0.46,-0.17,-7.02,6.04,-0.67
1777399489337,2122829,-0.86,-0.46,-0.16,-5.43,6.71,-0.12
1777399489337,2122839,-0.86,-0.46,-0.16,-4.03,5.98,0.73
1777399489337,2122849,-0.85,-0.45,-0.16,-2.50,4.27,1.22
1777399489337,2122859,-0.85,-0.46,-0.17,-1.22,2.99,1.28
1777399489337,2122869,-0.84,-0.45,-0.18,1.10,2.50,0.98
1777399489337,2122879,-0.84,-0.45,-0.17,3.91,3.11,1.10
1777399489337,2122889,-0.83,-0.45,-0.16,5.80,4.15,1.04
1777399489337,2122899,-0.83,-0.45,-0.16,7.57,4.70,1.34
1777399489337,2122909,-0.83,-0.46,-0.15,9.16,5.31,1.28
1777399489337,2122919,-0.82,-0.46,-0.15,10.44,5.07,1.59
1777399489338,2122929,-0.82,-0.46,-0.15,10.86,4.70,1.83
1777399489338,2122939,-0.81,-0.47,-0.15,11.47,3.72,1.53
1777399489338,2122949,-0.79,-0.47,-0.16,12.39,3.42,1.71
1777399489338,2122959,-0.79,-0.48,-0.15,13.37,3.48,2.50
1777399489338,2122969,-0.80,-0.48,-0.15,14.10,3.36,2.81
1777399489338,2122979,-0.80,-0.48,-0.14,15.08,3.05,1.95
1777399489338,2122989,-0.80,-0.49,-0.15,16.48,2.69,-0.85
1777399489338,2123009,-0.81,-0.50,-0.13,18.74,-1.16,-2.32
1777399489338,2123029,-0.80,-0.53,-0.13,17.82,-4.64,-3.17
1777399489339,2123049,-0.80,-0.54,-0.12,17.33,-5.13,-3.23
1777399489339,2123069,-0.81,-0.55,-0.11,16.60,-5.49,-4.64
1777399489339,2123079,-0.81,-0.55,-0.11,15.63,-6.16,-5.19
1777399489339,2123089,-0.80,-0.55,-0.11,13.55,-7.14,-5.25
1777399489339,2123099,-0.81,-0.55,-0.12,11.35,-7.45,-5.49
1777399489339,2123109,-0.81,-0.56,-0.11,9.58,-7.63,-5.37
1777399489339,2123119,-0.82,-0.56,-0.11,7.57,-8.06,-4.82
1777399489339,2123129,-0.82,-0.56,-0.11,5.00,-8.54,-4.64
1777399489339,2123139,-0.82,-0.55,-0.12,2.56,-8.73,-4.64
1777399489340,2123149,-0.83,-0.55,-0.13,0.43,-8.36,-4.33
1777399489340,2123159,-0.84,-0.54,-0.13,-1.34,-7.14,-4.21
1777399489340,2123169,-0.85,-0.53,-0.13,-2.50,-5.62,-4.70
1777399489340,2123179,-0.85,-0.52,-0.13,-3.30,-4.52,-5.31
1777399489340,2123189,-0.84,-0.52,-0.13,-3.85,-4.15,-5.80
1777399489340,2123199,-0.84,-0.51,-0.13,-4.33,-4.70,-6.41
1777399489340,2123209,-0.83,-0.52,-0.13,-4.76,-5.86,-7.32
1777399489340,2123219,-0.82,-0.52,-0.14,-4.82,-7.45,-7.26
1777399489340,2123229,-0.81,-0.52,-0.14,-4.39,-8.61,-6.90
1777399489341,2123239,-0.80,-0.52,-0.14,-4.15,-9.28,-6.71
1777399489341,2123249,-0.80,-0.52,-0.13,-3.78,-9.46,-6.65
1777399489341,2123259,-0.80,-0.52,-0.12,-3.85,-9.77,-6.35
1777399489341,2123269,-0.80,-0.53,-0.12,-4.15,-9.89,-6.10
1777399489341,2123279,-0.81,-0.53,-0.12,-3.54,-9.34,-6.16
1777399489341,2123289,-0.81,-0.53,-0.12,-2.50,-8.67,-6.41
1777399489341,2123299,-0.81,-0.54,-0.11,-2.14,-8.79,-6.90
1777399489341,2123309,-0.81,-0.54,-0.10,-2.26,-10.01,-7.02
1777399489341,2123319,-0.81,-0.54,-0.10,-2.44,-11.84,-6.71
1777399489342,2123329,-0.81,-0.55,-0.09,-2.87,-13.31,-6.59
1777399489342,2123349,-0.83,-0.55,-0.09,-6.04,-14.10,-6.41
1777399489342,2123369,-0.85,-0.54,-0.11,-6.04,-9.22,-6.96
1777399489342,2123389,-0.88,-0.52,-0.12,-6.65,-4.58,-7.20
1777399489342,2123409,-0.89,-0.50,-0.14,-7.32,-3.60,-6.84
1777399489342,2123419,-0.89,-0.49,-0.14,-6.84,-3.54,-7.08
1777399489342,2123429,-0.88,-0.49,-0.15,-6.41,-3.85,-7.69
1777399489342,2123439,-0.86,-0.49,-0.16,-5.80,-4.15,-8.06
1777399489342,2123449,-0.85,-0.48,-0.17,-4.76,-4.09,-7.81
1777399489342,2123459,-0.84,-0.49,-0.18,-3.23,-3.60,-7.69
1777399489343,2123469,-0.83,-0.48,-0.18,-0.67,-2.44,-8.18
1777399489343,2123479,-0.82,-0.48,-0.16,1.77,-1.77,-8.73
1777399489343,2123489,-0.82,-0.48,-0.15,3.11,-2.01,-8.18
1777399489343,2123499,-0.82,-0.49,-0.14,3.60,-2.93,-7.51
1777399489343,2123509,-0.81,-0.50,-0.14,4.21,-3.60,-7.45
1777399489343,2123519,-0.80,-0.50,-0.12,4.70,-4.03,-7.32
1777399489343,2123529,-0.79,-0.50,-0.11,4.46,-4.64,-6.35
1777399489343,2123539,-0.79,-0.51,-0.11,3.54,-5.07,-5.25
1777399489343,2123549,-0.78,-0.52,-0.12,2.81,-5.00,-4.64
1777399489344,2123559,-0.77,-0.53,-0.11,2.87,-4.27,-4.21
1777399489344,2123569,-0.77,-0.53,-0.11,2.87,-3.60,-3.97
1777399489344,2123579,-0.78,-0.54,-0.10,2.81,-3.05,-4.03
1777399489344,2123589,-0.79,-0.54,-0.10,3.11,-3.17,-4.15
1777399489344,2123599,-0.80,-0.54,-0.09,3.91,-3.97,-4.94
1777399489344,2123609,-0.80,-0.54,-0.09,4.21,-5.98,-5.68
1777399489344,2123619,-0.80,-0.54,-0.10,3.72,-8.18,-6.23
1777399489344,2123629,-0.80,-0.53,-0.10,3.36,-9.46,-6.84
1777399489344,2123639,-0.80,-0.53,-0.11,2.99,-9.89,-6.90
1777399489344,2123649,-0.81,-0.53,-0.11,2.87,-10.19,-6.04
1777399489345,2123659,-0.81,-0.53,-0.12,2.81,-10.13,-5.49
1777399489345,2123669,-0.80,-0.52,-0.13,2.26,-10.31,-5.86
1777399489345,2123679,-0.81,-0.52,-0.13,2.08,-10.31,-7.14
1777399489345,2123699,-0.82,-0.51,-0.13,4.33,-12.33,-9.16
1777399489345,2123719,-0.87,-0.51,-0.13,3.17,-15.99,-8.97
1777399489345,2123739,-0.86,-0.52,-0.13,1.59,-15.32,-9.70
1777399489345,2123759,-0.85,-0.52,-0.13,0.49,-11.23,-10.07
1777399489345,2123769,-0.85,-0.52,-0.12,0.12,-9.28,-10.13
1777399489345,2123779,-0.85,-0.53,-0.11,0.31,-8.12,-9.77
1777399489345,2123789,-0.84,-0.53,-0.11,0.18,-8.00,-9.70
1777399489346,2123799,-0.83,-0.53,-0.11,0.12,-8.54,-10.19
1777399489346,2123809,-0.82,-0.54,-0.11,0.06,-9.46,-10.13
1777399489346,2123819,-0.82,-0.54,-0.10,-0.24,-10.31,-9.52
1777399489346,2123829,-0.81,-0.54,-0.10,-0.73,-11.29,-9.09
1777399489346,2123839,-0.81,-0.55,-0.10,-1.16,-12.57,-8.67
1777399489346,2123849,-0.81,-0.55,-0.11,-0.92,-12.88,-8.97
1777399489346,2123859,-0.81,-0.55,-0.11,0.06,-12.02,-9.77
1777399489346,2123869,-0.81,-0.55,-0.09,1.10,-10.80,-9.83
1777399489346,2123879,-0.81,-0.55,-0.08,0.92,-10.38,-9.34
1777399489347,2123889,-0.80,-0.56,-0.09,-0.06,-10.50,-8.97
1777399489347,2123899,-0.80,-0.57,-0.09,-1.16,-10.68,-8.42
1777399489347,2123909,-0.81,-0.57,-0.09,-1.95,-10.68,-7.69
1777399489347,2123919,-0.82,-0.57,-0.09,-2.93,-10.80,-7.02
1777399489347,2123929,-0.83,-0.57,-0.09,-4.15,-11.41,-7.08
1777399489347,2123939,-0.84,-0.57,-0.10,-5.31,-11.66,-7.81
1777399489347,2123949,-0.85,-0.57,-0.10,-5.98,-11.05,-8.18
1777399489347,2123959,-0.87,-0.57,-0.11,-6.04,-9.64,-8.18
1777399489347,2123969,-0.88,-0.57,-0.11,-5.49,-7.75,-8.30
1777399489348,2123979,-0.88,-0.57,-0.10,-5.31,-5.62,-9.34
1777399489348,2123989,-0.89,-0.56,-0.09,-5.98,-4.03,-10.19
1777399489348,2123999,-0.88,-0.56,-0.09,-7.32,-3.66,-9.89
1777399489348,2124009,-0.88,-0.56,-0.11,-8.61,-3.54,-9.46
1777399489348,2124019,-0.87,-0.55,-0.11,-8.79,-2.44,-9.22
1777399489348,2124029,-0.88,-0.55,-0.12,-8.42,14.77,-10.56
1777399489348,2124049,-0.87,-0.55,-0.11,-6.04,0.31,-11.96
1777399489348,2124069,-0.85,-0.55,-0.10,-5.62,-0.67,-13.18
1777399489348,2124089,-0.83,-0.55,-0.10,-7.87,1.40,-11.84
1777399489349,2124099,-0.83,-0.56,-0.10,-9.16,2.69,-10.38
1777399489349,2124109,-0.83,-0.56,-0.08,-10.31,3.11,-9.16
1777399489349,2124119,-0.81,-0.56,-0.11,-10.99,1.65,-6.53
1777399489349,2124129,-0.83,-0.56,-0.11,-10.01,0.37,-4.27
1777399489349,2124139,-0.82,-0.56,-0.12,-10.19,1.16,-7.02
1777399489349,2124149,-0.80,-0.55,-0.14,-10.80,3.42,-11.17
1777399489349,2124159,-0.79,-0.54,-0.16,-10.68,6.71,-13.37
1777399489349,2124169,-0.77,-0.54,-0.16,-9.95,9.83,-13.24
1777399489349,2124179,-0.76,-0.53,-0.16,-9.34,11.66,-12.27
1777399489350,2124189,-0.75,-0.53,-0.17,-9.22,12.27,-11.23
1777399489350,2124199,-0.73,-0.53,-0.19,-9.52,12.39,-10.50
1777399489350,2124209,-0.72,-0.52,-0.20,-8.85,12.82,-9.83
1777399489350,2124219,-0.73,-0.53,-0.19,-7.20,12.82,-8.91
1777399489350,2124229,-0.74,-0.53,-0.19,-5.55,11.54,-8.54
1777399489350,2124239,-0.74,-0.53,-0.19,-4.09,9.16,-8.91
1777399489350,2124249,-0.75,-0.53,-0.19,-2.32,6.23,-9.03
1777399489350,2124259,-0.75,-0.53,-0.19,-0.67,3.42,-9.09
1777399489350,2124269,-0.74,-0.53,-0.19,0.55,1.04,-9.70
1777399489350,2124279,-0.74,-0.54,-0.20,1.71,-0.67,-9.83
1777399489351,2124289,-0.73,-0.54,-0.19,2.81,-1.34,-9.22
1777399489351,2124299,-0.73,-0.54,-0.18,3.11,-1.59,-8.06
1777399489351,2124309,-0.74,-0.55,-0.18,2.69,-2.08,-6.90
1777399489351,2124319,-0.74,-0.56,-0.18,2.62,-2.32,-6.23
1777399489351,2124329,-0.74,-0.56,-0.18,2.93,-2.08,-6.59
1777399489351,2124339,-0.75,-0.56,-0.17,3.11,-1.95,-6.53
1777399489351,2124349,-0.76,-0.57,-0.17,3.11,-2.38,-6.04
1777399489351,2124359,-0.77,-0.57,-0.17,2.81,-3.17,-6.71
1777399489351,2124369,-0.78,-0.58,-0.17,2.56,-4.15,-7.63
1777399489351,2124389,-0.79,-0.58,-0.16,0.55,-4.88,-7.81
1777399489352,2124409,-0.77,-0.56,-0.18,-0.55,-2.44,-7.69
1777399489352,2124429,-0.77,-0.55,-0.20,-1.89,-1.71,-6.84
1777399489352,2124449,-0.78,-0.54,-0.20,0.31,-1.28,-7.57
1777399489352,2124459,-0.78,-0.54,-0.20,1.04,-1.40,-7.57
1777399489352,2124469,-0.78,-0.54,-0.20,1.10,-1.89,-7.51
1777399489352,2124479,-0.78,-0.53,-0.20,1.40,-2.87,-7.02
1777399489352,2124489,-0.78,-0.53,-0.19,1.65,-3.91,-6.65
1777399489352,2124499,-0.78,-0.53,-0.19,1.65,-5.00,-6.16
1777399489352,2124509,-0.78,-0.53,-0.20,1.40,-5.49,-5.62
1777399489352,2124519,-0.78,-0.53,-0.20,1.10,-4.94,-5.25
1777399489353,2124529,-0.78,-0.53,-0.21,1.28,-3.48,-5.00
1777399489353,2124539,-0.79,-0.54,-0.21,2.38,-2.32,-4.46
1777399489353,2124549,-0.79,-0.53,-0.20,3.85,-1.40,-4.15
1777399489353,2124559,-0.79,-0.53,-0.20,4.76,-0.55,-4.39
1777399489353,2124569,-0.79,-0.54,-0.19,5.13,-0.31,-4.27
1777399489353,2124579,-0.79,-0.55,-0.18,4.88,-1.10,-3.66
1777399489353,2124589,-0.79,-0.55,-0.18,4.21,-2.75,-3.11
1777399489353,2124599,-0.79,-0.56,-0.18,3.66,-3.97,-3.48
1777399489353,2124609,-0.78,-0.56,-0.19,3.48,-4.82,-3.72
1777399489353,2124619,-0.77,-0.56,-0.18,3.54,-5.00,-3.30
1777399489354,2124629,-0.78,-0.57,-0.18,3.60,-4.46,-2.93
1777399489354,2124639,-0.78,-0.57,-0.17,4.46,-3.66,-3.23
1777399489354,2124649,-0.78,-0.57,-0.16,5.00,-3.17,-3.48
1777399489354,2124659,-0.78,-0.58,-0.15,4.70,-3.85,-3.17
1777399489354,2124669,-0.77,-0.59,-0.15,3.91,-4.88,-2.99
1777399489354,2124679,-0.77,-0.58,-0.15,3.11,-5.74,-3.30
1777399489354,2124689,-0.76,-0.58,-0.14,2.32,-6.53,-3.60
1777399489354,2124699,-0.76,-0.59,-0.15,1.77,-7.45,-2.99
1777399489354,2124709,-0.76,-0.58,-0.15,1.53,-7.75,-2.62
1777399489355,2124719,-0.75,-0.58,-0.16,1.22,-7.45,-2.50
1777399489355,2124739,-0.76,-0.57,-0.17,0.00,-5.86,-0.79
1777399489355,2124759,-0.81,-0.55,-0.17,0.49,-4.27,0.12
1777399489355,2124779,-0.82,-0.54,-0.19,-0.37,-4.58,0.24
1777399489355,2124789,-0.82,-0.53,-0.20,0.24,-4.15,0.55
1777399489355,2124799,-0.82,-0.52,-0.20,0.92,-3.36,1.10
1777399489355,2124809,-0.82,-0.51,-0.21,1.10,-2.01,1.89
1777399489355,2124819,-0.83,-0.51,-0.22,1.71,-0.31,2.69
1777399489355,2124829,-0.84,-0.51,-0.22,3.30,1.40,3.42
1777399489355,2124839,-0.84,-0.51,-0.22,5.25,2.50,3.36
1777399489355,2124849,-0.85,-0.51,-0.22,7.02,2.81,2.81
1777399489356,2124859,-0.85,-0.51,-0.21,8.24,2.14,2.87
1777399489356,2124869,-0.84,-0.51,-0.22,9.03,1.53,2.75
1777399489356,2124879,-0.84,-0.51,-0.23,10.01,2.38,2.87
1777399489356,2124889,-0.83,-0.50,-0.23,11.23,4.21,3.36
1777399489356,2124899,-0.83,-0.51,-0.22,12.08,6.16,3.72
1777399489356,2124909,-0.82,-0.51,-0.22,13.18,7.39,4.15
1777399489356,2124919,-0.82,-0.51,-0.21,14.59,7.45,4.46
1777399489356,2124929,-0.81,-0.51,-0.21,15.99,7.14,3.72
1777399489356,2124939,-0.80,-0.52,-0.20,17.33,6.90,2.75
1777399489356,2124949,-0.80,-0.52,-0.20,18.13,5.92,2.32
1777399489357,2124959,-0.79,-0.52,-0.20,18.49,5.19,2.01
1777399489357,2124969,-0.78,-0.52,-0.19,18.80,4.94,2.14
1777399489357,2124979,-0.78,-0.52,-0.19,18.49,5.13,2.56
1777399489357,2124989,-0.77,-0.52,-0.19,18.01,5.55,2.50
1777399489357,2124999,-0.77,-0.53,-0.19,17.70,6.53,2.20
1777399489357,2125009,-0.77,-0.53,-0.19,17.64,7.20,1.77
1777399489357,2125019,-0.77,-0.53,-0.19,17.88,7.39,1.16
1777399489357,2125029,-0.76,-0.54,-0.19,18.25,6.47,0.79
1777399489357,2125039,-0.75,-0.54,-0.19,18.25,5.07,0.73
1777399489358,2125049,-0.74,-0.55,-0.19,18.25,3.05,0.61
1777399489358,2125059,-0.74,-0.55,-0.20,18.25,0.73,0.92
1777399489358,2125079,-0.75,-0.57,-0.19,16.17,-4.27,2.08
1777399489358,2125099,-0.78,-0.57,-0.19,14.47,-4.03,0.18
1777399489358,2125119,-0.80,-0.57,-0.17,14.71,-3.11,-2.87
1777399489358,2125139,-0.80,-0.58,-0.18,10.74,-6.16,-3.97
1777399489358,2125149,-0.80,-0.58,-0.18,9.58,-7.20,-4.82
1777399489358,2125159,-0.79,-0.58,-0.18,8.91,-7.57,-5.92
1777399489358,2125169,-0.80,-0.57,-0.17,7.45,-7.75,-6.59
1777399489358,2125179,-0.80,-0.57,-0.17,5.49,-8.12,-6.96
1777399489359,2125189,-0.79,-0.57,-0.17,3.66,-8.24,-7.69
1777399489359,2125199,-0.80,-0.57,-0.17,2.32,-7.69,-8.30
1777399489359,2125209,-0.80,-0.57,-0.17,1.34,-6.90,-8.67
1777399489359,2125219,-0.80,-0.57,-0.16,-0.43,-7.02,-8.85
1777399489359,2125229,-0.80,-0.57,-0.16,-2.62,-8.00,-8.85
1777399489359,2125239,-0.80,-0.57,-0.17,-4.33,-8.97,-8.85
1777399489359,2125249,-0.80,-0.57,-0.17,-5.19,-9.40,-9.09
1777399489359,2125259,-0.80,-0.57,-0.17,-6.04,-9.40,-9.64
1777399489359,2125269,-0.80,-0.56,-0.17,-6.77,-9.58,-10.13
1777399489360,2125279,-0.80,-0.56,-0.17,-7.26,-9.83,-10.38
1777399489360,2125289,-0.80,-0.55,-0.17,-7.20,-9.95,-10.68
1777399489360,2125299,-0.80,-0.55,-0.17,-7.20,-10.56,-11.17
1777399489360,2125309,-0.80,-0.54,-0.17,-7.26,-10.99,-11.78
1777399489360,2125319,-0.79,-0.54,-0.17,-7.08,-11.54,-12.15
1777399489360,2125329,-0.78,-0.54,-0.17,-7.02,-12.57,-12.15
1777399489360,2125339,-0.77,-0.54,-0.17,-7.20,-13.67,-12.27
1777399489360,2125349,-0.76,-0.53,-0.18,-7.69,-14.28,-12.02
1777399489360,2125359,-0.76,-0.53,-0.18,-8.06,-14.04,-10.93
1777399489361,2125369,-0.76,-0.53,-0.18,-8.00,-13.06,-9.95
1777399489361,2125379,-0.77,-0.54,-0.18,-7.57,-12.21,-9.58
1777399489361,2125389,-0.77,-0.54,-0.16,-6.84,-12.21,-9.64
1777399489361,2125399,-0.77,-0.55,-0.16,-6.71,-13.37,-9.64
1777399489361,2125409,-0.76,-0.56,-0.16,-6.90,-30.52,-8.97
1777399489361,2125429,-0.77,-0.58,-0.15,-6.41,-16.85,-7.26
1777399489361,2125449,-0.80,-0.59,-0.15,-7.14,-15.38,-6.84
1777399489361,2125469,-0.83,-0.59,-0.14,-6.41,-12.82,-7.63
1777399489361,2125489,-0.84,-0.57,-0.15,-6.71,-12.63,-8.36
1777399489361,2125499,-0.84,-0.57,-0.16,-6.90,-12.27,-9.28
1777399489362,2125509,-0.83,-0.56,-0.17,-7.20,-11.35,-10.01
1777399489362,2125519,-0.83,-0.56,-0.18,-7.08,-10.50,-9.46
1777399489362,2125529,-0.83,-0.55,-0.18,-6.96,-9.40,-9.09
1777399489362,2125539,-0.82,-0.55,-0.18,-6.59,-8.61,-9.22
1777399489362,2125549,-0.82,-0.54,-0.19,-5.98,-8.24,-9.09
1777399489362,2125559,-0.81,-0.54,-0.20,-5.07,-7.93,-9.03
1777399489362,2125569,-0.81,-0.54,-0.20,-3.66,-6.84,-9.52
1777399489362,2125579,-0.80,-0.53,-0.20,-2.20,-5.80,-9.52
1777399489362,2125589,-0.80,-0.53,-0.19,-1.10,-5.37,-8.61
1777399489362,2125599,-0.81,-0.53,-0.18,-0.79,-5.55,-7.75
1777399489363,2125609,-0.81,-0.53,-0.19,-0.49,-5.68,-7.02
1777399489363,2125619,-0.81,-0.53,-0.19,0.18,-4.88,-6.47
1777399489363,2125629,-0.80,-0.53,-0.18,0.92,-4.09,-5.68
1777399489363,2125639,-0.80,-0.53,-0.17,1.28,-3.66,-5.25
1777399489363,2125649,-0.80,-0.53,-0.17,1.77,-3.17,-5.62
1777399489363,2125659,-0.79,-0.54,-0.17,2.99,-2.81,-6.23
1777399489363,2125669,-0.79,-0.54,-0.17,4.03,-2.93,-6.29
1777399489363,2125679,-0.78,-0.54,-0.17,4.70,-3.17,-6.10
1777399489363,2125689,-0.78,-0.54,-0.17,5.68,-3.17,-5.31
1777399489363,2125699,-0.79,-0.54,-0.17,6.16,-3.05,-4.46
1777399489363,2125709,-0.80,-0.54,-0.17,5.98,-2.87,-3.91
1777399489364,2125719,-0.80,-0.54,-0.17,5.62,-2.44,-4.03
1777399489364,2125729,-0.79,-0.55,-0.17,5.37,-1.83,-4.03
1777399489364,2125739,-0.78,-0.55,-0.17,5.13,-1.71,-3.60
1777399489364,2125749,-0.77,-0.55,-0.17,4.94,-1.77,-3.36
1777399489364,2125769,-0.76,-0.55,-0.19,6.90,-3.05,-3.48
1777399489364,2125789,-0.75,-0.56,-0.17,8.42,-5.49,-2.87
1777399489364,2125809,-0.77,-0.56,-0.16,8.06,-8.06,-2.14
1777399489364,2125829,-0.79,-0.57,-0.16,6.04,-7.26,-1.10
1777399489364,2125839,-0.80,-0.58,-0.15,5.43,-6.04,-1.46
1777399489364,2125849,-0.81,-0.58,-0.15,4.82,-5.43,-2.26
1777399489365,2125859,-0.82,-0.58,-0.15,4.27,-5.55,-3.36
1777399489365,2125869,-0.81,-0.57,-0.16,3.91,-5.86,-4.27
1777399489365,2125879,-0.81,-0.57,-0.17,3.17,-6.10,-4.64
1777399489365,2125889,-0.80,-0.57,-0.18,2.38,-6.10,-4.64
1777399489365,2125899,-0.80,-0.56,-0.18,1.89,-5.74,-4.70
1777399489365,2125909,-0.79,-0.56,-0.19,1.59,-5.37,-5.07
1777399489365,2125919,-0.78,-0.56,-0.19,1.40,-5.25,-4.94
1777399489365,2125929,-0.79,-0.56,-0.18,1.34,-5.49,-4.52
1777399489365,2125939,-0.79,-0.56,-0.18,1.53,-5.98,-4.64
1777399489365,2125949,-0.79,-0.56,-0.18,1.65,-6.41,-5.31
1777399489365,2125959,-0.80,-0.56,-0.18,1.95,-6.59,-5.37
1777399489366,2125969,-0.80,-0.56,-0.17,2.08,-6.35,-5.19
1777399489366,2125979,-0.81,-0.57,-0.17,2.14,-6.29,-4.82
1777399489366,2125989,-0.81,-0.57,-0.16,2.01,-6.04,-4.58
1777399489366,2125999,-0.81,-0.55,-0.16,1.95,-5.49,-4.82
1777399489366,2126009,-0.81,-0.54,-0.15,2.32,-4.82,-4.70
1777399489366,2126019,-0.81,-0.56,-0.17,0.61,-4.64,-3.78
1777399489366,2126029,-0.81,-0.55,-0.18,-0.12,-3.48,-3.36
1777399489366,2126039,-0.81,-0.55,-0.18,-0.24,-1.77,-3.42
1777399489366,2126049,-0.81,-0.54,-0.17,0.61,-0.37,-3.66
1777399489367,2126059,-0.81,-0.54,-0.17,1.22,-0.43,-3.78
1777399489367,2126069,-0.81,-0.54,-0.18,1.34,-1.40,-4.21
1777399489367,2126079,-0.81,-0.53,-0.18,2.01,-2.08,-4.88
1777399489367,2126089,-0.81,-0.53,-0.18,2.81,-2.26,-5.13
1777399489367,2126099,-0.80,-0.53,-0.18,3.17,-2.32,-3.42
1777399489367,2126119,-0.79,-0.52,-0.19,3.42,0.43,-1.77
1777399489367,2126139,-0.80,-0.52,-0.20,5.62,1.77,-2.44
1777399489367,2126159,-0.80,-0.52,-0.19,8.18,0.67,-2.08
1777399489367,2126179,-0.80,-0.53,-0.19,8.97,-1.04,-2.38
1777399489367,2126189,-0.79,-0.53,-0.18,9.46,-1.77,-2.44
1777399489368,2126199,-0.78,-0.53,-0.18,9.70,-1.95,-2.20
1777399489368,2126209,-0.78,-0.54,-0.18,9.77,-1.65,-1.95
1777399489368,2126219,-0.78,-0.54,-0.18,9.83,-0.98,-1.83
1777399489368,2126229,-0.78,-0.54,-0.17,9.95,-0.31,-1.65
1777399489368,2126239,-0.78,-0.55,-0.17,10.25,-0.24,-1.71
1777399489368,2126249,-0.78,-0.55,-0.17,10.38,-0.73,-2.20
1777399489368,2126259,-0.78,-0.55,-0.17,10.25,-1.65,-2.69
1777399489368,2126269,-0.78,-0.56,-0.17,10.13,-2.50,-2.81
1777399489368,2126279,-0.78,-0.56,-0.17,10.25,-3.11,-3.11
1777399489369,2126289,-0.78,-0.56,-0.17,9.83,-3.66,-3.54
1777399489369,2126299,-0.79,-0.58,-0.17,9.64,-4.27,-4.15
1777399489369,2126309,-0.79,-0.56,-0.16,9.40,-5.25,-5.07
1777399489369,2126319,-0.78,-0.57,-0.17,8.42,-6.16,-5.49
1777399489369,2126329,-0.78,-0.57,-0.17,8.12,-6.16,-5.92
1777399489369,2126339,-0.78,-0.57,-0.17,7.57,-5.49,-6.23
1777399489369,2126349,-0.79,-0.57,-0.17,6.90,-5.13,-6.04
1777399489369,2126359,-0.79,-0.57,-0.16,6.29,-5.68,-6.16
1777399489369,2126369,-0.79,-0.57,-0.17,5.49,-6.84,-6.59
1777399489369,2126379,-0.79,-0.56,-0.17,4.52,-7.87,-7.02
1777399489370,2126389,-0.79,-0.56,-0.17,3.60,-8.06,-7.14
1777399489370,2126399,-0.79,-0.56,-0.17,2.44,-7.69,-6.96
1777399489370,2126409,-0.79,-0.56,-0.16,1.40,-7.26,-6.53
1777399489370,2126419,-0.79,-0.57,-0.16,0.73,-7.20,-6.77
1777399489370,2126429,-0.78,-0.57,-0.16,0.67,-7.39,-8.42
1777399489370,2126439,-0.77,-0.57,-0.15,0.79,-8.12,-9.64
1777399489370,2126459,-0.76,-0.57,-0.15,-0.73,-10.50,-8.12
1777399489370,2126479,-0.76,-0.57,-0.14,-2.50,-10.01,-5.55
1777399489370,2126499,-0.79,-0.58,-0.14,-4.27,-10.38,-3.97
1777399489370,2126519,-0.81,-0.58,-0.14,-2.99,-9.64,-5.62
1777399489371,2126529,-0.82,-0.57,-0.14,-2.38,-10.01,-6.90
1777399489371,2126539,-0.82,-0.57,-0.14,-2.26,-11.11,-7.63
1777399489371,2126549,-0.82,-0.57,-0.15,-2.38,-12.08,-7.69
1777399489371,2126559,-0.81,-0.57,-0.16,-2.75,-12.27,-8.12
1777399489371,2126569,-0.80,-0.57,-0.16,-3.11,-11.35,-7.75
1777399489371,2126579,-0.80,-0.57,-0.17,-3.78,-10.31,-7.14
1777399489371,2126589,-0.81,-0.57,-0.17,-4.58,-9.16,-6.77
1777399489371,2126599,-0.81,-0.57,-0.18,-4.46,-7.87,-6.71
1777399489371,2126609,-0.82,-0.57,-0.18,-3.42,-6.53,-7.14
1777399489371,2126619,-0.83,-0.57,-0.17,-2.38,-5.62,-7.87
1777399489371,2126629,-0.83,-0.57,-0.17,-1.89,-5.68,-8.12
1777399489372,2126639,-0.84,-0.57,-0.17,-1.89,-6.41,-8.36
1777399489372,2126649,-0.84,-0.56,-0.17,-1.71,-6.77,-8.67
1777399489372,2126659,-0.83,-0.56,-0.17,-1.65,-5.98,-9.28
1777399489372,2126669,-0.82,-0.56,-0.17,-1.95,-4.82,-9.22
1777399489372,2126679,-0.82,-0.56,-0.16,-2.69,-3.60,-8.30
1777399489372,2126689,-0.81,-0.56,-0.16,-2.99,-2.50,-7.69
1777399489372,2126699,-0.81,-0.56,-0.16,-2.75,-1.65,-7.57
1777399489372,2126709,-0.80,-0.56,-0.16,-2.14,-1.10,-7.75
1777399489372,2126719,-0.80,-0.56,-0.15,-1.40,-1.46,-8.06
1777399489372,2126729,-0.80,-0.56,-0.16,-0.73,-2.14,-8.79
1777399489373,2126739,-0.79,-0.56,-0.15,-0.06,-2.69,-9.16
1777399489373,2126749,-0.79,-0.56,-0.14,0.12,-3.23,-9.03
1777399489373,2126759,-0.80,-0.56,-0.14,-0.12,-3.60,-8.36
1777399489373,2126769,-0.81,-0.56,-0.14,-0.18,-3.60,-8.18
1777399489373,2126779,-0.81,-0.56,-0.15,-0.61,-3.54,-8.91
1777399489373,2126789,-0.80,-0.56,-0.14,-0.67,-3.36,-11.41
1777399489373,2126809,-0.82,-0.57,-0.12,-3.48,-18.49,-16.30
1777399489373,2126829,-0.86,-0.57,-0.18,-14.22,-78.98,-32.04
1777399489373,2126849,-0.73,-0.50,-0.43,-0.85,-121.89,-46.57
1777399489374,2126869,-0.66,-0.48,-0.39,23.93,-106.45,-43.40
1777399489374,2126879,-0.67,-0.49,-0.31,30.03,-89.60,-38.51
1777399489374,2126889,-0.67,-0.50,-0.23,32.41,-73.73,-32.65
1777399489374,2126899,-0.70,-0.53,-0.15,32.35,-60.42,-26.98
1777399489374,2126909,-0.72,-0.56,-0.08,32.35,-51.03,-21.00
1777399489374,2126919,-0.75,-0.59,-0.00,32.78,-45.59,-15.87
1777399489374,2126929,-0.79,-0.62,0.05,32.35,-43.76,-13.24
1777399489374,2126939,-0.82,-0.64,0.08,31.92,-43.70,-14.28
1777399489374,2126949,-0.82,-0.65,0.10,31.98,-42.24,-18.07
1777399489374,2126959,-0.80,-0.65,0.12,31.13,-38.70,-21.18
1777399489374,2126969,-0.78,-0.66,0.14,29.05,-33.87,-21.24
1777399489375,2126979,-0.76,-0.66,0.16,25.51,-28.44,-18.68
1777399489375,2126989,-0.73,-0.67,0.16,20.39,-22.09,-15.26
1777399489375,2126999,-0.71,-0.68,0.16,15.75,-14.47,-11.29
1777399489375,2127009,-0.70,-0.67,0.17,11.78,-6.04,-6.16
1777399489375,2127019,-0.71,-0.69,0.19,7.20,2.93,-0.37
1777399489375,2127029,-0.71,-0.67,0.19,2.32,8.61,3.11
1777399489375,2127039,-0.73,-0.70,0.15,-2.62,12.51,5.13
1777399489375,2127049,-0.72,-0.65,0.11,-4.76,17.88,5.25
1777399489375,2127059,-0.72,-0.65,0.10,-6.59,25.21,5.86
1777399489375,2127069,-0.72,-0.64,0.10,-8.00,31.62,7.81
1777399489376,2127079,-0.72,-0.63,0.08,-11.05,36.25,10.86
1777399489376,2127089,-0.72,-0.62,0.04,-14.28,40.28,13.18
1777399489376,2127099,-0.72,-0.62,0.01,-16.48,44.86,14.95
1777399489376,2127109,-0.72,-0.61,-0.02,-16.85,50.05,16.54
1777399489376,2127119,-0.73,-0.60,-0.04,-16.78,56.03,17.52
1777399489376,2127129,-0.74,-0.59,-0.05,-16.85,61.71,17.94
1777399489376,2127149,-0.76,-0.59,-0.06,-18.68,60.36,18.80
1777399489376,2127169,-0.78,-0.56,-0.18,-17.88,49.13,15.14
1777399489376,2127189,-0.77,-0.54,-0.23,-12.70,41.93,13.49
1777399489377,2127209,-0.80,-0.54,-0.24,-5.07,35.52,11.35
1777399489377,2127219,-0.81,-0.54,-0.23,-1.71,30.40,8.85
1777399489377,2127229,-0.82,-0.54,-0.22,0.79,23.44,5.92
1777399489377,2127239,-0.82,-0.54,-0.22,3.05,15.63,3.85
1777399489377,2127249,-0.82,-0.54,-0.22,5.00,8.36,2.81
1777399489377,2127259,-0.82,-0.54,-0.21,6.41,2.38,1.53
1777399489377,2127269,-0.83,-0.55,-0.20,7.63,-2.75,-0.31
1777399489377,2127279,-0.82,-0.55,-0.20,8.85,-6.84,-2.14
1777399489377,2127289,-0.82,-0.56,-0.19,10.31,-8.85,-3.60
1777399489377,2127299,-0.82,-0.56,-0.17,11.47,-8.79,-4.76
1777399489378,2127309,-0.82,-0.57,-0.15,11.84,-8.00,-5.25
1777399489378,2127319,-0.81,-0.57,-0.14,11.78,-7.57,-5.31
1777399489378,2127329,-0.80,-0.58,-0.13,11.35,-7.26,-5.19
1777399489378,2127339,-0.80,-0.58,-0.12,10.13,-6.65,-5.07
1777399489378,2127349,-0.79,-0.58,-0.12,8.73,-5.74,-4.58
1777399489378,2127359,-0.79,-0.58,-0.12,7.14,-4.52,-3.66
1777399489378,2127369,-0.79,-0.58,-0.12,5.49,-2.99,-2.62
1777399489378,2127379,-0.80,-0.58,-0.13,4.39,-1.16,-2.32
1777399489378,2127389,-0.80,-0.58,-0.12,3.91,0.43,-2.50
1777399489378,2127399,-0.81,-0.58,-0.12,3.91,0.49,-2.99
1777399489378,2127409,-0.80,-0.58,-0.12,3.42,-0.79,-3.36
1777399489379,2127419,-0.79,-0.58,-0.14,2.56,-2.38,-3.78
1777399489379,2127429,-0.79,-0.57,-0.15,2.38,-2.99,-4.09
1777399489379,2127439,-0.78,-0.57,-0.15,2.56,-2.69,-3.72
1777399489379,2127449,-0.78,-0.57,-0.15,2.26,-2.26,-2.93
1777399489379,2127459,-0.78,-0.56,-0.15,1.59,-2.01,-2.50
1777399489379,2127469,-0.78,-0.56,-0.15,1.10,-2.20,-2.62
1777399489379,2127479,-0.79,-0.56,-0.16,1.34,-2.75,-5.00
1777399489379,2127499,-0.77,-0.57,-0.16,2.87,-3.60,-5.68
1777399489379,2127519,-0.76,-0.57,-0.17,2.75,-5.00,-5.80
1777399489379,2127539,-0.78,-0.57,-0.15,3.05,-5.13,-4.15
1777399489380,2127559,-0.79,-0.58,-0.14,3.97,-4.52,-5.07
1777399489380,2127569,-0.79,-0.58,-0.13,4.70,-4.70,-5.98
1777399489380,2127579,-0.80,-0.58,-0.12,4.64,-5.92,-6.96
1777399489380,2127589,-0.80,-0.57,-0.13,3.91,-7.57,-7.39
1777399489380,2127599,-0.80,-0.58,-0.13,2.93,-9.03,-7.75
1777399489380,2127609,-0.79,-0.57,-0.14,2.26,-9.89,-7.87
1777399489380,2127619,-0.79,-0.56,-0.16,1.89,-10.50,-8.06
1777399489380,2127629,-0.79,-0.56,-0.17,1.77,-9.52,-8.73
1777399489380,2127639,-0.79,-0.56,-0.16,2.26,-7.63,-8.79
1777399489380,2127649,-0.79,-0.56,-0.15,2.26,-5.74,-8.48
1777399489380,2127659,-0.79,-0.56,-0.15,1.59,-4.52,-8.06
1777399489381,2127669,-0.80,-0.57,-0.14,1.34,-4.27,-7.87
1777399489381,2127679,-0.79,-0.57,-0.13,1.59,-4.76,-8.18
1777399489387,2127689,-0.79,-0.58,-0.13,1.46,-5.68,-8.42
1777399489397,2127699,-0.78,-0.58,-0.13,1.10,-6.47,-8.30
1777399489407,2127709,-0.78,-0.57,-0.13,0.92,-6.77,-8.54
1777399489417,2127719,-0.78,-0.57,-0.14,0.49,-7.08,-8.54
1777399489427,2127729,-0.78,-0.57,-0.14,0.37,-6.47,-8.06
1777399489437,2127739,-0.78,-0.57,-0.13,0.49,-5.68,-7.14
1777399489447,2127749,-0.78,-0.57,-0.13,-0.06,-5.43,-6.71
1777399489457,2127759,-0.78,-0.58,-0.13,-0.49,-5.74,-6.71
1777399489467,2127769,-0.78,-0.57,-0.13,0.00,-6.29,-7.08
1777399489477,2127779,-0.78,-0.58,-0.12,0.55,-7.20,-7.32
1777399489487,2127789,-0.78,-0.58,-0.12,0.85,-8.00,-7.45
1777399489497,2127799,-0.77,-0.58,-0.12,0.55,-8.54,-7.32
1777399489507,2127809,-0.76,-0.58,-0.13,-0.31,-8.79,-7.20
1777399489517,2127819,-0.76,-0.57,-0.12,-1.10,-8.54,-6.71
1777399489537,2127839,-0.76,-0.57,-0.12,-3.48,-6.16,-1.83
1777399489557,2127859,-0.78,-0.57,-0.14,-2.99,-4.58,-1.28
1777399489577,2127879,-0.79,-0.57,-0.14,-1.59,-5.13,-1.95
1777399489597,2127899,-0.79,-0.58,-0.14,-0.92,-6.47,-2.08
1777399489607,2127909,-0.79,-0.58,-0.13,-1.22,-7.32,-1.83
1777399489617,2127919,-0.79,-0.58,-0.14,-1.59,-7.93,-0.92
1777399489627,2127929,-0.79,-0.58,-0.14,-1.95,-7.51,-0.31
1777399489637,2127939,-0.80,-0.58,-0.14,-1.53,-6.16,-0.24
1777399489647,2127949,-0.81,-0.58,-0.13,-1.10,-4.82,-0.49
1777399489657,2127959,-0.81,-0.58,-0.13,-1.22,-3.60,-1.77
1777399489667,2127969,-0.80,-0.58,-0.14,-1.10,-2.81,-2.81
1777399489677,2127979,-0.80,-0.58,-0.14,-1.16,-2.75,-2.75
1777399489687,2127989,-0.80,-0.57,-0.14,-1.22,-3.17,-2.81
1777399489698,2127999,-0.81,-0.56,-0.14,-1.04,-4.21,-2.93
1777399489708,2128009,-0.80,-0.58,-0.15,-1.28,-4.88,-3.54
1777399489717,2128019,-0.81,-0.56,-0.14,-0.98,-4.76,-4.15
1777399489731,2128029,-0.81,-0.56,-0.14,-0.85,-4.58,-3.60
1777399489737,2128039,-0.81,-0.56,-0.15,-0.92,-4.46,-3.60
1777399489747,2128049,-0.79,-0.55,-0.16,-1.71,-3.72,-4.09
1777399489757,2128059,-0.78,-0.54,-0.16,-1.77,-1.89,-3.60
1777399489767,2128069,-0.78,-0.54,-0.16,-1.59,-0.24,-2.26
1777399489777,2128079,-0.78,-0.54,-0.16,-1.77,0.37,-1.53
1777399489787,2128089,-0.78,-0.54,-0.17,-1.71,-0.24,-2.01
1777399489797,2128099,-0.78,-0.55,-0.18,-0.85,-0.73,-2.14
1777399489807,2128109,-0.78,-0.55,-0.18,0.31,-1.34,-1.40
1777399489817,2128119,-0.78,-0.55,-0.19,1.10,-1.89,-0.73
1777399489827,2128129,-0.78,-0.55,-0.19,2.01,-2.01,-0.12
1777399489837,2128139,-0.78,-0.55,-0.19,2.99,-1.65,0.43
1777399489847,2128149,-0.79,-0.55,-0.18,3.17,-1.22,0.92
1777399489857,2128159,-0.79,-0.56,-0.18,3.30,-1.28,1.34
1777399489867,2128169,-0.80,-0.56,-0.18,3.42,-1.89,2.56
1777399489887,2128189,-0.83,-0.56,-0.17,2.93,-2.56,3.11
1777399489907,2128209,-0.84,-0.55,-0.20,4.21,-0.06,0.98
1777399489927,2128229,-0.83,-0.55,-0.19,5.49,3.78,-0.49
1777399489947,2128249,-0.82,-0.56,-0.19,5.25,3.78,-0.31
1777399489957,2128259,-0.80,-0.56,-0.18,5.31,2.99,-0.43
1777399489967,2128269,-0.80,-0.57,-0.17,4.82,1.40,-0.92
1777399489977,2128279,-0.79,-0.58,-0.17,4.70,-1.04,-1.71
1777399489987,2128289,-0.78,-0.58,-0.19,4.70,-4.03,-3.54
1777399489997,2128299,-0.76,-0.57,-0.20,5.86,-5.86,-5.13
1777399490007,2128309,-0.76,-0.57,-0.20,7.20,-5.25,-4.76
1777399490017,2128319,-0.77,-0.57,-0.20,7.51,-3.11,-3.23
1777399490027,2128329,-0.78,-0.57,-0.20,6.71,-0.37,-1.83
1777399490037,2128339,-0.79,-0.57,-0.20,5.49,2.44,-0.92
1777399490047,2128349,-0.81,-0.58,-0.19,5.31,4.39,-0.31
1777399490057,2128359,-0.82,-0.58,-0.18,5.62,4.82,-0.67
1777399490067,2128369,-0.82,-0.58,-0.18,5.86,3.91,-2.01
1777399490077,2128379,-0.82,-0.58,-0.17,6.23,2.08,-3.17
1777399490087,2128389,-0.82,-0.58,-0.16,6.41,-0.79,-4.46
1777399490097,2128399,-0.80,-0.58,-0.16,6.16,-3.97,-5.80
1777399490107,2128409,-0.79,-0.56,-0.17,5.62,-6.96,-6.53
1777399490117,2128419,-0.78,-0.55,-0.18,4.82,-7.69,-6.41
1777399490127,2128429,-0.77,-0.54,-0.20,4.09,-5.92,-5.55
1777399490137,2128439,-0.77,-0.54,-0.20,3.54,-1.40,-4.21
1777399490147,2128449,-0.78,-0.54,-0.19,2.69,3.78,-2.99
1777399490157,2128459,-0.80,-0.55,-0.16,1.71,6.96,-2.20
1777399490167,2128469,-0.80,-0.56,-0.16,0.61,6.65,-2.44
1777399490177,2128479,-0.80,-0.56,-0.17,-0.18,4.39,-3.54
1777399490187,2128489,-0.78,-0.56,-0.19,-0.49,2.20,-4.39
1777399490197,2128499,-0.77,-0.56,-0.19,0.00,1.34,-4.39
1777399490207,2128509,-0.78,-0.55,-0.18,-0.12,1.65,-4.33
1777399490217,2128519,-0.79,-0.55,-0.18,-0.73,1.40,-3.36
1777399490237,2128539,-0.81,-0.55,-0.18,-2.32,0.31,-3.11
1777399490257,2128559,-0.82,-0.54,-0.18,-0.67,2.08,-5.37
