host_time_ms,arduino_time_ms,ax,ay,az,gx,gy,gz
1777399830654,2461798,-0.72,-0.62,-0.18,-9.09,4.88,-9.70
1777399830654,2461808,-0.71,-0.62,-0.19,-9.03,6.96,-9.40
1777399830654,2461818,-0.70,-0.62,-0.21,-8.42,7.51,-9.09
1777399830655,2461828,-0.69,-0.62,-0.22,-7.75,6.71,-8.67
1777399830655,2461838,-0.69,-0.62,-0.23,-6.71,5.07,-6.04
1777399830655,2461858,-0.70,-0.61,-0.26,-3.72,2.81,-4.15
1777399830655,2461878,-0.71,-0.60,-0.28,0.06,3.91,-3.97
1777399830656,2461898,-0.70,-0.59,-0.26,3.66,2.56,-2.93
1777399830656,2461918,-0.70,-0.60,-0.26,5.98,-3.48,-2.38
1777399830656,2461928,-0.69,-0.61,-0.25,7.81,-6.65,-2.44
1777399830656,2461938,-0.69,-0.62,-0.23,9.89,-9.64,-2.08
1777399830657,2461948,-0.69,-0.62,-0.21,11.11,-13.43,-1.10
1777399830657,2461958,-0.71,-0.63,-0.20,11.90,-18.49,0.06
1777399830657,2461968,-0.72,-0.64,-0.19,12.94,-23.99,1.10
1777399830657,2461978,-0.73,-0.63,-0.18,14.28,-27.77,1.28
1777399830658,2461988,-0.73,-0.64,-0.17,15.44,-29.11,1.16
1777399830658,2461998,-0.74,-0.64,-0.15,15.99,-28.44,1.34
1777399830659,2462008,-0.76,-0.64,-0.13,16.11,-25.88,1.53
1777399830659,2462018,-0.78,-0.64,-0.11,15.32,-22.77,1.04
1777399830659,2462028,-0.79,-0.64,-0.09,13.43,-19.71,-0.43
1777399830660,2462038,-0.80,-0.64,-0.07,11.05,-17.21,-2.14
1777399830660,2462048,-0.80,-0.65,-0.07,8.79,-15.44,-3.78
1777399830660,2462058,-0.79,-0.65,-0.07,6.41,-14.04,-5.43
1777399830661,2462068,-0.78,-0.66,-0.07,3.97,-12.21,-6.29
1777399830661,2462078,-0.77,-0.66,-0.08,1.89,-9.09,-6.65
1777399830661,2462088,-0.76,-0.65,-0.09,-0.18,-5.55,-6.96
1777399830661,2462098,-0.76,-0.65,-0.10,-2.32,-2.20,-6.71
1777399830662,2462108,-0.76,-0.65,-0.12,-4.46,0.00,-6.29
1777399830662,2462118,-0.75,-0.65,-0.14,-6.10,1.40,-6.47
1777399830662,2462128,-0.74,-0.64,-0.17,-6.90,3.48,-7.87
1777399830662,2462138,-0.72,-0.64,-0.19,-6.77,6.23,-9.03
1777399830663,2462148,-0.71,-0.63,-0.19,-6.10,9.52,-8.42
1777399830663,2462158,-0.71,-0.63,-0.19,-5.31,11.78,-7.63
1777399830663,2462168,-0.71,-0.62,-0.20,-5.19,11.96,-7.57
1777399830663,2462178,-0.71,-0.62,-0.20,-5.07,10.13,-7.51
1777399830664,2462198,-0.68,-0.64,-0.23,-2.38,1.34,-4.88
1777399830664,2462218,-0.66,-0.60,-0.27,1.10,0.79,-3.11
1777399830664,2462238,-0.68,-0.60,-0.25,5.25,2.81,-1.65
1777399830665,2462258,-0.70,-0.60,-0.22,7.14,1.28,0.06
1777399830665,2462268,-0.70,-0.60,-0.21,7.75,-2.01,1.04
1777399830665,2462278,-0.70,-0.60,-0.20,8.12,-5.68,1.71
1777399830665,2462288,-0.70,-0.61,-0.19,8.67,-8.67,2.56
1777399830666,2462298,-0.71,-0.61,-0.17,9.28,-10.50,3.05
1777399830666,2462308,-0.72,-0.61,-0.16,9.58,-11.84,3.42
1777399830666,2462318,-0.74,-0.62,-0.14,9.58,-13.67,4.52
1777399830666,2462328,-0.76,-0.62,-0.14,9.58,-15.26,5.19
1777399830667,2462338,-0.78,-0.63,-0.14,8.97,-15.75,4.15
1777399830667,2462348,-0.78,-0.64,-0.14,8.00,-14.71,2.20
1777399830667,2462358,-0.79,-0.65,-0.13,7.32,-11.96,0.98
1777399830667,2462368,-0.81,-0.65,-0.12,6.71,-9.03,0.43
1777399830668,2462378,-0.81,-0.65,-0.11,5.62,-7.14,-0.24
1777399830668,2462388,-0.81,-0.64,-0.12,3.78,-6.35,-1.34
1777399830668,2462398,-0.80,-0.64,-0.13,2.01,-5.86,-2.38
1777399830668,2462408,-0.78,-0.64,-0.15,0.67,-4.64,-2.93
1777399830669,2462418,-0.77,-0.64,-0.16,0.00,-2.87,-3.60
1777399830669,2462428,-0.76,-0.64,-0.17,-0.18,-1.10,-3.91
1777399830669,2462438,-0.76,-0.64,-0.18,-0.31,-0.24,-3.78
1777399830669,2462448,-0.75,-0.64,-0.18,-0.18,-0.18,-4.09
1777399830670,2462458,-0.74,-0.64,-0.19,0.06,-0.24,-4.21
1777399830670,2462468,-0.75,-0.63,-0.19,0.24,-0.43,-3.78
1777399830670,2462478,-0.75,-0.63,-0.20,0.43,-1.16,-3.42
1777399830670,2462488,-0.75,-0.63,-0.20,0.85,-2.56,-3.66
1777399830670,2462498,-0.74,-0.63,-0.21,1.65,-3.36,-4.70
1777399830671,2462508,-0.73,-0.62,-0.21,2.38,-3.54,-5.19
1777399830671,2462518,-0.73,-0.62,-0.20,3.23,-3.11,-4.58
1777399830671,2462528,-0.73,-0.62,-0.20,4.09,-2.69,-4.33
1777399830671,2462548,-0.73,-0.61,-0.18,4.03,-2.99,-3.85
1777399830671,2462568,-0.73,-0.61,-0.19,3.54,-2.93,-5.25
1777399830672,2462588,-0.73,-0.61,-0.19,4.52,-2.44,-4.64
1777399830672,2462608,-0.72,-0.62,-0.17,5.55,-5.00,-5.00
1777399830672,2462618,-0.71,-0.62,-0.17,6.10,-6.35,-4.76
1777399830672,2462628,-0.71,-0.62,-0.16,5.92,-7.02,-4.52
1777399830672,2462638,-0.71,-0.63,-0.16,5.62,-6.77,-4.03
1777399830673,2462648,-0.71,-0.63,-0.15,5.43,-6.23,-2.69
1777399830673,2462658,-0.73,-0.62,-0.14,5.25,-5.92,-1.28
1777399830673,2462668,-0.73,-0.62,-0.13,4.09,-6.04,-0.98
1777399830673,2462678,-0.74,-0.62,-0.13,3.05,-6.41,-0.92
1777399830673,2462688,-0.75,-0.62,-0.14,2.56,-6.77,-1.16
1777399830674,2462698,-0.75,-0.62,-0.13,2.20,-6.65,-1.65
1777399830674,2462708,-0.75,-0.61,-0.14,1.83,-6.96,-1.65
1777399830674,2462718,-0.75,-0.61,-0.14,1.40,-7.14,-1.40
1777399830674,2462728,-0.75,-0.61,-0.15,1.04,-7.20,-0.98
1777399830674,2462738,-0.74,-0.61,-0.16,0.61,-6.47,-0.49
1777399830675,2462748,-0.75,-0.60,-0.17,0.18,-5.00,0.12
1777399830675,2462758,-0.77,-0.60,-0.17,0.18,-3.66,0.79
1777399830675,2462768,-0.78,-0.61,-0.18,-0.12,-3.36,0.79
1777399830675,2462778,-0.78,-0.61,-0.19,-0.24,-3.60,0.12
1777399830675,2462788,-0.78,-0.61,-0.20,0.43,-3.42,-0.55
1777399830676,2462798,-0.77,-0.61,-0.20,1.46,-2.93,-1.46
1777399830676,2462808,-0.76,-0.60,-0.21,2.62,-2.75,-2.69
1777399830676,2462818,-0.76,-0.60,-0.20,3.48,-2.87,-3.66
1777399830676,2462828,-0.76,-0.61,-0.20,4.27,-3.78,-3.66
1777399830677,2462838,-0.75,-0.60,-0.20,5.13,-4.82,-3.60
1777399830677,2462848,-0.75,-0.60,-0.20,5.68,-5.37,-3.48
1777399830677,2462858,-0.75,-0.61,-0.20,6.29,-5.43,-3.30
1777399830677,2462868,-0.74,-0.61,-0.20,6.84,-4.76,-3.54
1777399830677,2462888,-0.74,-0.62,-0.18,6.71,-4.52,-2.62
1777399830677,2462908,-0.74,-0.62,-0.17,7.08,-5.25,-3.54
1777399830678,2462928,-0.76,-0.62,-0.15,7.14,-4.88,-2.87
1777399830678,2462948,-0.75,-0.63,-0.15,4.76,-4.64,-4.21
1777399830678,2462958,-0.76,-0.63,-0.15,4.21,-3.60,-3.97
1777399830678,2462968,-0.76,-0.63,-0.15,3.85,-3.05,-3.66
1777399830678,2462978,-0.76,-0.63,-0.14,3.30,-3.36,-3.66
1777399830679,2462988,-0.76,-0.63,-0.14,2.75,-4.15,-3.78
1777399830679,2462998,-0.75,-0.63,-0.15,2.56,-5.43,-4.09
1777399830679,2463008,-0.75,-0.63,-0.15,2.44,-6.35,-4.21
1777399830679,2463018,-0.75,-0.62,-0.15,2.32,-6.16,-3.66
1777399830679,2463028,-0.76,-0.62,-0.14,2.38,-5.55,-3.11
1777399830680,2463038,-0.76,-0.61,-0.14,1.83,-4.76,-3.48
1777399830680,2463048,-0.75,-0.61,-0.15,0.98,-3.78,-3.97
1777399830680,2463058,-0.74,-0.61,-0.16,0.06,-2.50,-4.15
1777399830680,2463068,-0.74,-0.61,-0.17,-0.61,-0.98,-3.78
1777399830680,2463078,-0.74,-0.61,-0.17,-0.85,-0.12,-3.11
1777399830680,2463088,-0.75,-0.60,-0.18,-0.85,-0.24,-2.75
1777399830681,2463098,-0.75,-0.60,-0.18,-0.55,-1.53,-2.99
1777399830681,2463108,-0.75,-0.60,-0.19,0.12,-3.05,-3.36
1777399830681,2463118,-0.74,-0.60,-0.20,0.92,-3.97,-3.42
1777399830681,2463128,-0.74,-0.59,-0.20,1.71,-3.97,-3.23
1777399830681,2463138,-0.74,-0.59,-0.21,2.32,-3.36,-2.87
1777399830681,2463148,-0.73,-0.58,-0.21,2.99,-2.56,-2.93
1777399830682,2463158,-0.72,-0.58,-0.21,3.85,-1.71,-2.81
1777399830682,2463168,-0.70,-0.59,-0.20,4.27,-1.53,-2.20
1777399830682,2463178,-0.69,-0.58,-0.19,4.27,-2.56,-0.73
1777399830682,2463188,-0.67,-0.60,-0.20,4.52,-4.46,0.73
1777399830682,2463198,-0.63,-0.58,-0.22,5.80,-5.43,2.01
1777399830683,2463208,-0.63,-0.62,-0.21,7.20,-5.19,5.00
1777399830683,2463218,-0.63,-0.63,-0.19,10.86,-6.10,9.70
1777399830683,2463238,-0.62,-0.60,-0.19,22.83,-19.04,17.58
1777399830684,2463258,-0.61,-0.61,-0.22,25.57,-40.77,28.56
1777399830684,2463278,-0.53,-0.49,0.02,30.03,-66.53,35.40
1777399830684,2463298,-0.50,-0.42,0.43,8.06,-94.30,43.88
1777399830684,2463308,-0.75,-0.38,0.21,-19.71,-126.53,58.23
1777399830684,2463318,-0.81,-0.45,-0.01,-3.30,-154.36,70.68
1777399830685,2463328,-0.84,-0.57,-0.14,15.26,-171.69,71.29
1777399830685,2463338,-0.79,-0.62,-0.23,36.25,-177.31,65.06
1777399830685,2463348,-0.83,-0.50,-0.24,51.70,-172.55,56.64
1777399830685,2463358,-0.87,-0.41,-0.16,57.31,-164.12,54.02
1777399830686,2463368,-0.92,-0.35,-0.11,68.12,-156.49,54.81
1777399830686,2463378,-0.95,-0.34,-0.07,81.91,-149.11,55.42
1777399830686,2463388,-0.96,-0.37,-0.02,93.75,-141.24,50.84
1777399830686,2463398,-0.97,-0.36,0.04,100.59,-132.51,41.20
1777399830686,2463408,-0.99,-0.34,0.12,105.53,-123.05,32.29
1777399830686,2463418,-1.03,-0.30,0.17,110.72,-113.10,26.79
1777399830687,2463428,-1.08,-0.18,0.25,106.20,-100.52,21.85
1777399830687,2463438,-1.12,-0.19,0.34,92.22,-91.00,19.17
1777399830687,2463448,-1.13,-0.27,0.45,80.69,-86.61,17.33
1777399830687,2463458,-1.10,-0.31,0.54,73.12,-86.36,13.24
1777399830687,2463468,-1.08,-0.35,0.59,68.18,-88.75,7.81
1777399830688,2463478,-1.00,-0.41,0.62,67.20,-90.88,2.32
1777399830688,2463488,-0.89,-0.46,0.57,66.10,-92.59,-1.65
1777399830688,2463498,-0.87,-0.47,0.51,60.42,-90.88,-4.58
1777399830688,2463508,-0.85,-0.49,0.51,55.05,-83.25,-6.90
1777399830688,2463518,-0.82,-0.49,0.51,51.03,-76.54,-9.58
1777399830688,2463528,-0.79,-0.49,0.55,45.84,-72.02,-12.45
1777399830689,2463538,-0.74,-0.46,0.65,41.87,-72.45,-14.22
1777399830689,2463548,-0.72,-0.45,0.69,39.06,-79.10,-13.92
1777399830689,2463558,-0.69,-0.41,0.71,35.64,-86.36,-12.02
1777399830689,2463568,-0.65,-0.39,0.64,32.59,-108.70,-5.98
1777399830689,2463588,-0.54,-0.46,0.49,48.10,-89.72,-4.76
1777399830690,2463608,-0.43,-0.32,0.42,74.04,-73.43,9.22
1777399830690,2463628,-0.58,-0.29,0.53,82.40,-63.96,38.09
1777399830690,2463638,-0.74,-0.31,0.55,81.54,-66.35,42.42
1777399830690,2463648,-0.75,-0.32,0.54,82.09,-71.72,38.21
1777399830690,2463658,-0.66,-0.27,0.52,91.55,-79.35,33.81
1777399830690,2463668,-0.55,-0.25,0.45,104.68,-85.21,32.47
1777399830691,2463678,-0.54,-0.23,0.44,114.38,-87.28,31.68
1777399830691,2463688,-0.43,-0.21,0.44,118.65,-82.89,30.09
1777399830691,2463698,-0.48,-0.23,0.47,117.19,-77.94,27.04
1777399830691,2463708,-0.52,-0.11,0.48,116.88,-71.17,21.61
1777399830691,2463718,-0.51,-0.12,0.53,117.92,-62.56,18.55
1777399830691,2463728,-0.43,-0.06,0.53,120.24,-52.92,18.19
1777399830691,2463738,-0.24,0.06,0.68,118.41,-43.09,19.47
1777399830692,2463748,-0.61,0.00,1.50,111.45,-48.46,27.95
1777399830692,2463758,-0.88,0.01,1.62,127.75,-103.15,27.77
1777399830692,2463768,-0.91,0.30,1.07,139.95,-167.66,4.09
1777399830692,2463778,-0.70,0.47,0.67,116.94,-179.32,-12.21
1777399830692,2463788,-0.92,0.45,0.83,72.14,-149.78,-16.36
1777399830692,2463798,-0.97,0.17,1.10,40.22,-117.74,-13.67
1777399830693,2463808,-0.96,0.27,1.19,29.30,-99.43,-12.82
1777399830693,2463818,-0.61,0.14,1.27,25.57,-84.23,6.71
1777399830693,2463828,-0.50,0.10,1.15,21.73,-71.41,6.04
1777399830693,2463838,-0.51,0.10,1.08,10.31,-51.27,-6.53
1777399830693,2463848,-0.45,0.12,1.01,-7.14,-25.15,-13.24
1777399830694,2463858,-0.52,-0.04,1.17,-27.89,2.87,-18.74
1777399830694,2463868,-0.53,-0.10,1.23,-54.93,24.54,-33.20
1777399830694,2463878,-0.52,-0.08,1.17,-72.51,42.30,-48.83
1777399830694,2463888,-0.51,-0.03,1.06,-95.15,60.61,-60.67
1777399830694,2463898,-0.48,0.10,1.02,-123.11,81.67,-68.12
1777399830694,2463908,-0.65,0.07,1.18,-154.72,100.10,-76.11
1777399830695,2463928,-0.54,0.00,1.22,-162.23,81.67,-49.19
1777399830695,2463948,-0.28,-0.36,0.45,-146.85,86.30,-27.22
1777399830695,2463968,-0.59,-0.63,0.56,-198.12,141.66,-64.88
1777399830695,2463988,-0.66,-0.68,1.34,-213.87,196.04,-97.72
1777399830695,2463998,-0.80,-0.76,1.52,-206.18,187.19,-106.81
1777399830695,2464008,-0.56,-0.56,1.09,-199.22,143.49,-117.00
1777399830696,2464018,-0.61,-0.44,1.04,-196.29,116.64,-114.38
1777399830696,2464028,-0.55,-0.29,0.88,-204.10,101.44,-105.59
1777399830696,2464038,-0.48,-0.28,0.65,-217.90,92.77,-88.01
1777399830696,2464048,-0.47,-0.28,0.50,-228.45,95.64,-65.31
1777399830696,2464058,-0.43,-0.30,0.34,-229.00,102.66,-40.59
1777399830697,2464068,-0.40,-0.48,0.25,-223.88,113.77,-14.34
1777399830697,2464078,-0.40,-0.56,0.14,-211.55,125.18,6.41
1777399830697,2464088,-0.42,-0.65,0.12,-196.59,137.27,20.57
1777399830697,2464098,-0.50,-0.66,0.15,-183.29,146.61,27.16
1777399830697,2464108,-0.53,-0.63,0.16,-173.22,146.73,29.30
1777399830697,2464118,-0.62,-0.54,0.17,-165.77,138.85,30.52
1777399830698,2464128,-0.70,-0.43,0.16,-159.79,124.57,35.28
1777399830698,2464138,-0.51,-0.61,-0.08,-156.74,108.22,41.20
1777399830698,2464148,-0.59,-0.61,-0.16,-155.21,101.75,35.89
1777399830698,2464158,-0.55,-0.62,-0.26,-142.58,100.89,32.10
1777399830698,2464168,-0.59,-0.59,-0.24,-127.44,101.62,29.11
1777399830698,2464178,-0.63,-0.55,-0.21,-114.07,97.96,27.34
1777399830698,2464188,-0.65,-0.53,-0.20,-105.10,85.63,26.86
1777399830699,2464198,-0.66,-0.50,-0.23,-100.46,68.24,25.70
1777399830699,2464208,-0.67,-0.49,-0.28,-98.33,49.80,24.48
1777399830699,2464218,-0.66,-0.50,-0.35,-97.53,33.51,22.28
1777399830699,2464228,-0.66,-0.49,-0.41,-95.28,21.79,19.59
1777399830699,2464238,-0.65,-0.47,-0.49,-89.17,14.71,17.82
1777399830699,2464248,-0.67,-0.46,-0.52,-80.87,12.70,17.40
1777399830700,2464258,-0.68,-0.45,-0.56,-70.31,29.60,16.36
1777399830700,2464278,-0.74,-0.46,-0.54,-36.32,28.87,12.82
1777399830700,2464298,-0.78,-0.44,-0.42,-21.85,26.37,10.86
1777399830700,2464318,-0.82,-0.45,-0.37,-17.58,18.13,12.27
1777399830700,2464328,-0.84,-0.47,-0.35,-17.09,13.79,12.94
1777399830700,2464338,-0.87,-0.48,-0.33,-15.69,9.40,12.21
1777399830701,2464348,-0.88,-0.50,-0.34,-13.24,4.88,9.22
1777399830701,2464358,-0.86,-0.50,-0.34,-9.83,1.53,3.36
1777399830701,2464368,-0.83,-0.49,-0.34,-5.68,-0.24,-2.56
1777399830701,2464378,-0.81,-0.49,-0.32,-1.16,-1.10,-6.04
1777399830701,2464388,-0.79,-0.48,-0.29,2.26,-2.44,-7.87
1777399830701,2464398,-0.76,-0.47,-0.28,3.11,-5.37,-8.97
1777399830702,2464408,-0.74,-0.47,-0.28,1.83,-9.40,-8.67
1777399830702,2464418,-0.73,-0.48,-0.30,0.67,-12.45,-7.51
1777399830702,2464428,-0.73,-0.49,-0.32,0.61,-13.12,-6.16
1777399830702,2464438,-0.73,-0.49,-0.32,1.22,-11.17,-4.70
1777399830702,2464448,-0.74,-0.48,-0.31,1.59,-8.24,-3.54
1777399830702,2464458,-0.74,-0.47,-0.30,0.92,-5.55,-3.30
1777399830703,2464468,-0.74,-0.48,-0.31,0.18,-3.05,-2.87
1777399830703,2464478,-0.74,-0.47,-0.31,-0.37,-0.12,-2.14
1777399830703,2464488,-0.76,-0.49,-0.29,-0.98,2.62,-1.77
1777399830703,2464498,-0.77,-0.50,-0.26,-1.28,2.69,-2.01
1777399830703,2464508,-0.77,-0.52,-0.25,-1.53,-1.10,-2.93
1777399830703,2464518,-0.77,-0.53,-0.26,-1.89,-7.08,-4.33
1777399830704,2464528,-0.77,-0.53,-0.28,-1.04,-12.70,-5.31
1777399830704,2464538,-0.76,-0.53,-0.29,0.24,-16.72,-5.68
1777399830704,2464548,-0.77,-0.52,-0.30,0.85,-17.70,-5.31
1777399830704,2464558,-0.78,-0.52,-0.30,1.59,-16.91,-3.85
1777399830704,2464568,-0.79,-0.52,-0.30,2.01,-14.59,-2.20
1777399830704,2464578,-0.81,-0.52,-0.29,1.71,-10.86,-1.04
1777399830704,2464588,-0.83,-0.53,-0.29,1.10,-7.14,-0.98
1777399830705,2464598,-0.84,-0.54,-0.27,1.28,-4.15,-2.14
1777399830705,2464618,-0.85,-0.54,-0.25,1.95,-4.15,-8.06
1777399830705,2464638,-0.82,-0.52,-0.29,2.26,-6.10,-9.70
1777399830705,2464658,-0.79,-0.51,-0.29,2.50,-4.88,-9.09
1777399830705,2464678,-0.76,-0.52,-0.31,2.38,-2.14,-7.20
1777399830705,2464688,-0.76,-0.52,-0.30,2.81,-1.04,-6.16
1777399830705,2464698,-0.76,-0.53,-0.32,3.60,-0.67,-5.37
1777399830706,2464708,-0.77,-0.53,-0.29,4.15,0.12,-5.31
1777399830706,2464718,-0.77,-0.53,-0.30,4.70,-0.98,-5.49
1777399830706,2464728,-0.76,-0.53,-0.30,4.76,-1.95,-5.74
1777399830706,2464738,-0.76,-0.54,-0.32,4.52,-2.44,-5.68
1777399830706,2464748,-0.75,-0.54,-0.31,4.15,-1.95,-5.43
1777399830706,2464758,-0.75,-0.55,-0.32,4.15,-2.32,-5.19
1777399830706,2464768,-0.75,-0.56,-0.32,4.21,-2.75,-5.07
1777399830707,2464778,-0.74,-0.57,-0.32,4.33,-3.30,-4.70
1777399830707,2464788,-0.74,-0.56,-0.31,4.33,-3.66,-4.52
1777399830707,2464798,-0.75,-0.56,-0.30,3.48,-4.39,-4.03
1777399830707,2464808,-0.76,-0.57,-0.31,2.26,-5.31,-3.48
1777399830707,2464818,-0.77,-0.58,-0.30,1.04,-5.37,-3.60
1777399830707,2464828,-0.78,-0.59,-0.32,0.31,-5.37,-4.27
1777399830707,2464838,-0.78,-0.59,-0.32,0.00,-4.64,-5.43
1777399830707,2464848,-0.78,-0.59,-0.32,-0.12,-3.72,-6.53
1777399830708,2464858,-0.78,-0.58,-0.32,-0.12,-2.99,-6.84
1777399830708,2464868,-0.78,-0.58,-0.31,-0.12,-3.05,-6.84
1777399830708,2464878,-0.78,-0.58,-0.31,-0.24,-3.36,-7.39
1777399830708,2464888,-0.78,-0.58,-0.30,-0.92,-4.09,-8.30
1777399830708,2464898,-0.78,-0.58,-0.31,-1.77,-4.94,-9.03
1777399830708,2464908,-0.77,-0.57,-0.31,-2.20,-5.80,-9.46
1777399830708,2464918,-0.76,-0.56,-0.31,-2.62,-5.86,-9.46
1777399830709,2464928,-0.76,-0.55,-0.32,-3.30,-5.43,-9.34
1777399830709,2464938,-0.75,-0.55,-0.32,-4.09,-4.70,-8.91
1777399830709,2464948,-0.74,-0.54,-0.33,-5.31,-3.54,-7.32
1777399830709,2464968,-0.74,-0.52,-0.34,-6.16,-0.18,-5.92
1777399830709,2464988,-0.75,-0.50,-0.34,-5.98,-2.08,-4.82
1777399830709,2465008,-0.77,-0.50,-0.35,-5.13,-2.50,-2.38
1777399830709,2465028,-0.78,-0.48,-0.35,-3.66,-4.03,-1.89
1777399830710,2465038,-0.78,-0.48,-0.36,-2.75,-4.64,-2.38
1777399830710,2465048,-0.77,-0.48,-0.37,-1.22,-4.33,-3.48
1777399830710,2465058,-0.77,-0.48,-0.36,0.61,-3.66,-3.60
1777399830710,2465068,-0.77,-0.48,-0.34,1.65,-3.30,-2.56
1777399830710,2465078,-0.77,-0.48,-0.34,1.77,-3.60,-1.10
1777399830710,2465088,-0.77,-0.48,-0.34,1.40,-4.03,0.00
1777399830710,2465098,-0.78,-0.48,-0.34,1.46,-3.85,0.37
1777399830710,2465108,-0.77,-0.48,-0.33,1.89,-3.36,0.18
1777399830711,2465118,-0.77,-0.48,-0.32,1.77,-3.17,0.00
1777399830711,2465128,-0.77,-0.49,-0.33,1.71,-3.54,-0.31
1777399830711,2465138,-0.77,-0.49,-0.33,1.71,-3.91,-0.92
1777399830711,2465148,-0.76,-0.50,-0.34,2.20,-3.97,-1.83
1777399830711,2465158,-0.75,-0.49,-0.34,3.54,-4.03,-2.20
1777399830711,2465168,-0.75,-0.49,-0.33,4.70,-4.33,-1.71
1777399830711,2465178,-0.76,-0.50,-0.32,5.13,-4.88,-0.49
1777399830711,2465188,-0.76,-0.50,-0.32,4.88,-5.49,0.37
1777399830712,2465198,-0.76,-0.51,-0.32,4.21,-6.04,0.12
1777399830712,2465208,-0.76,-0.51,-0.32,4.03,-6.47,0.43
1777399830712,2465218,-0.76,-0.51,-0.32,4.09,-7.02,0.85
1777399830712,2465228,-0.77,-0.51,-0.32,3.66,-6.77,0.37
1777399830712,2465238,-0.77,-0.51,-0.31,3.11,-6.16,-0.49
1777399830712,2465248,-0.77,-0.51,-0.31,2.62,-5.92,-1.04
1777399830712,2465258,-0.77,-0.51,-0.33,2.01,-5.62,-1.59
1777399830712,2465268,-0.77,-0.52,-0.33,1.40,-4.82,-2.32
1777399830713,2465278,-0.78,-0.51,-0.33,1.40,-4.15,-2.32
1777399830713,2465288,-0.78,-0.51,-0.33,1.34,-4.15,-1.83
1777399830713,2465308,-0.79,-0.51,-0.34,1.65,-3.17,-1.40
1777399830713,2465328,-0.81,-0.50,-0.33,2.56,-1.53,-3.42
1777399830713,2465348,-0.81,-0.50,-0.33,4.15,-1.59,-6.29
1777399830713,2465368,-0.78,-0.49,-0.33,4.94,-2.56,-7.63
1777399830714,2465378,-0.77,-0.49,-0.33,5.00,-3.23,-8.54
1777399830714,2465388,-0.76,-0.48,-0.34,5.00,-3.78,-8.48
1777399830714,2465398,-0.75,-0.48,-0.34,5.19,-3.97,-8.24
1777399830714,2465408,-0.73,-0.48,-0.33,5.43,-4.03,-8.12
1777399830714,2465418,-0.71,-0.49,-0.34,5.31,-4.39,-8.00
1777399830714,2465428,-0.71,-0.50,-0.33,5.49,-4.94,-7.26
1777399830714,2465438,-0.71,-0.52,-0.33,5.80,-5.86,-6.53
1777399830714,2465448,-0.71,-0.54,-0.32,6.23,-7.45,-6.65
1777399830715,2465458,-0.71,-0.55,-0.32,6.96,-9.70,-6.84
1777399830715,2465468,-0.72,-0.56,-0.30,7.45,-12.02,-6.77
1777399830715,2465478,-0.72,-0.57,-0.30,7.39,-14.59,-7.08
1777399830715,2465488,-0.73,-0.57,-0.30,6.65,-16.42,-7.51
1777399830715,2465498,-0.74,-0.56,-0.30,5.74,-16.97,-7.14
1777399830715,2465508,-0.75,-0.56,-0.30,3.97,-16.17,-6.29
1777399830715,2465518,-0.76,-0.57,-0.30,2.08,-14.16,-5.37
1777399830716,2465528,-0.77,-0.57,-0.29,0.37,-11.23,-5.00
1777399830716,2465538,-0.79,-0.56,-0.29,-1.34,-8.18,-4.64
1777399830716,2465548,-0.81,-0.57,-0.28,-2.87,-5.74,-3.66
1777399830716,2465558,-0.82,-0.57,-0.28,-3.97,-4.27,-3.72
1777399830716,2465568,-0.83,-0.56,-0.29,-4.64,-3.66,-5.43
1777399830716,2465578,-0.83,-0.55,-0.29,-4.88,-4.03,-7.32
1777399830716,2465588,-0.83,-0.54,-0.30,-4.88,-4.82,-8.48
1777399830716,2465598,-0.83,-0.52,-0.31,-4.76,-5.19,-8.97
1777399830717,2465608,-0.81,-0.51,-0.33,-4.94,-4.15,-9.03
1777399830717,2465618,-0.80,-0.50,-0.34,-5.43,-2.38,-8.61
1777399830717,2465628,-0.79,-0.49,-0.35,-5.25,-0.55,-7.75
1777399830717,2465638,-0.78,-0.49,-0.35,-4.58,1.34,-6.59
1777399830717,2465658,-0.77,-0.47,-0.36,-0.98,2.69,-5.00
1777399830717,2465678,-0.77,-0.47,-0.36,2.44,-1.10,-4.27
1777399830717,2465698,-0.78,-0.47,-0.36,5.25,-3.05,-3.36
1777399830717,2465718,-0.78,-0.47,-0.35,6.16,-1.53,-2.50
1777399830718,2465728,-0.77,-0.47,-0.35,6.23,-1.16,-2.14
1777399830718,2465738,-0.76,-0.48,-0.34,6.10,-1.10,-1.59
1777399830718,2465748,-0.75,-0.48,-0.34,5.74,-1.10,-0.92
1777399830718,2465758,-0.74,-0.49,-0.34,5.37,-1.28,-0.06
1777399830718,2465768,-0.74,-0.50,-0.34,5.55,-1.95,0.73
1777399830718,2465778,-0.73,-0.51,-0.33,5.86,-2.93,1.28
1777399830718,2465788,-0.74,-0.51,-0.32,6.10,-4.21,1.65
1777399830718,2465798,-0.75,-0.51,-0.32,5.98,-5.62,1.89
1777399830719,2465808,-0.75,-0.52,-0.32,5.68,-6.41,2.20
1777399830719,2465818,-0.76,-0.52,-0.32,5.07,-6.04,2.01
1777399830719,2465828,-0.76,-0.53,-0.32,4.33,-5.07,1.34
1777399830719,2465838,-0.77,-0.53,-0.31,3.60,-4.46,0.31
1777399830719,2465848,-0.77,-0.54,-0.31,2.69,-4.27,-0.98
1777399830719,2465858,-0.76,-0.55,-0.31,2.26,-4.88,-1.53
1777399830719,2465868,-0.75,-0.55,-0.32,2.01,-5.86,-1.77
1777399830719,2465878,-0.76,-0.55,-0.32,1.59,-6.53,-1.77
1777399830720,2465888,-0.77,-0.56,-0.32,1.46,-6.84,-1.65
1777399830720,2465898,-0.77,-0.56,-0.32,1.40,-6.65,-2.26
1777399830720,2465908,-0.78,-0.55,-0.31,0.98,-6.10,-3.48
1777399830720,2465918,-0.79,-0.54,-0.31,0.79,-5.92,-4.15
1777399830720,2465928,-0.79,-0.54,-0.30,0.37,-6.04,-4.70
1777399830720,2465938,-0.80,-0.54,-0.30,-0.31,-6.53,-5.68
1777399830720,2465948,-0.79,-0.53,-0.31,-0.79,-6.71,-6.65
1777399830720,2465958,-0.78,-0.52,-0.32,-1.83,-6.23,-8.06
1777399830721,2465968,-0.78,-0.51,-0.33,-2.62,-4.88,-8.67
1777399830721,2465978,-0.78,-0.49,-0.33,-2.69,-3.42,-7.51
1777399830721,2465998,-0.78,-0.49,-0.34,-3.11,-3.17,-5.98
1777399830721,2466018,-0.79,-0.48,-0.35,-0.92,-2.99,-5.80
1777399830721,2466038,-0.80,-0.46,-0.35,0.67,-3.54,-6.53
1777399830721,2466058,-0.78,-0.45,-0.36,1.83,-2.69,-6.23
1777399830721,2466068,-0.79,-0.45,-0.35,2.44,-1.77,-5.25
1777399830721,2466078,-0.78,-0.46,-0.36,3.23,-1.22,-3.66
1777399830722,2466088,-0.78,-0.46,-0.36,3.60,-0.67,-2.32
1777399830722,2466098,-0.78,-0.46,-0.36,3.60,0.61,-1.65
1777399830722,2466108,-0.79,-0.46,-0.35,3.72,2.20,-0.73
1777399830722,2466118,-0.79,-0.47,-0.34,3.48,2.38,-0.18
1777399830722,2466128,-0.78,-0.48,-0.35,3.11,1.40,-0.92
1777399830722,2466138,-0.78,-0.48,-0.36,3.36,0.24,-1.77
1777399830722,2466148,-0.77,-0.48,-0.36,4.27,-0.92,-1.71
1777399830722,2466158,-0.77,-0.48,-0.36,4.82,-2.14,-1.65
1777399830723,2466168,-0.76,-0.48,-0.36,5.31,-2.99,-1.53
1777399830723,2466178,-0.76,-0.49,-0.36,5.98,-3.23,-1.28
1777399830723,2466188,-0.77,-0.49,-0.36,6.84,-3.05,-1.22
1777399830723,2466198,-0.78,-0.50,-0.35,7.51,-2.69,-1.53
1777399830723,2466208,-0.78,-0.50,-0.34,7.57,-2.69,-2.44
1777399830723,2466218,-0.78,-0.50,-0.34,7.51,-3.05,-3.17
1777399830723,2466228,-0.77,-0.51,-0.33,7.20,-3.05,-3.72
1777399830723,2466238,-0.77,-0.51,-0.34,6.90,-3.54,-4.52
1777399830724,2466248,-0.76,-0.51,-0.33,6.23,-3.72,-4.70
1777399830724,2466258,-0.76,-0.52,-0.33,6.16,-4.09,-4.09
1777399830724,2466268,-0.75,-0.51,-0.36,6.04,-4.46,-4.15
1777399830724,2466278,-0.74,-0.52,-0.32,5.86,-3.30,-4.33
1777399830724,2466288,-0.75,-0.52,-0.33,6.23,-3.72,-4.46
1777399830724,2466298,-0.75,-0.53,-0.31,5.92,-4.15,-4.94
1777399830724,2466308,-0.75,-0.53,-0.32,5.62,-5.43,-5.80
1777399830724,2466318,-0.75,-0.54,-0.31,5.37,-6.41,-6.96
1777399830724,2466328,-0.75,-0.54,-0.30,5.07,-7.08,-7.57
1777399830725,2466348,-0.75,-0.55,-0.30,2.32,-9.70,-7.45
1777399830725,2466368,-0.74,-0.54,-0.31,0.92,-8.30,-7.02
1777399830725,2466388,-0.75,-0.55,-0.30,-0.18,-7.51,-7.02
1777399830725,2466408,-0.75,-0.55,-0.31,-0.61,-8.61,-7.26
1777399830725,2466418,-0.76,-0.54,-0.31,-0.43,-9.22,-8.12
1777399830725,2466428,-0.76,-0.54,-0.31,-0.73,-9.46,-8.79
1777399830725,2466438,-0.76,-0.53,-0.31,-1.83,-9.77,-8.30
1777399830725,2466448,-0.76,-0.53,-0.33,-3.05,-9.58,-7.81
1777399830726,2466458,-0.77,-0.53,-0.33,-3.60,-8.79,-7.08
1777399830726,2466468,-0.77,-0.53,-0.33,-3.66,-7.87,-6.10
1777399830726,2466478,-0.78,-0.52,-0.34,-3.78,-7.51,-5.25
1777399830726,2466488,-0.79,-0.51,-0.34,-4.15,-7.20,-4.58
1777399830726,2466498,-0.80,-0.52,-0.35,-4.15,-6.84,-4.46
1777399830726,2466508,-0.81,-0.50,-0.37,-3.60,-6.10,-5.00
1777399830726,2466518,-0.81,-0.50,-0.36,-2.87,-4.46,-4.76
1777399830726,2466528,-0.81,-0.50,-0.36,-1.77,-3.66,-4.33
1777399830727,2466538,-0.82,-0.48,-0.36,-1.40,-3.36,-4.76
1777399830727,2466548,-0.81,-0.48,-0.36,-1.53,-3.30,-5.00
1777399830727,2466558,-0.81,-0.48,-0.37,-1.53,-3.42,-4.76
1777399830727,2466568,-0.80,-0.48,-0.38,-1.04,-2.87,-4.64
1777399830727,2466578,-0.80,-0.47,-0.37,-0.37,-1.89,-4.33
1777399830727,2466588,-0.79,-0.48,-0.37,0.61,-1.40,-4.09
1777399830727,2466598,-0.79,-0.47,-0.37,1.34,-0.67,-4.09
1777399830727,2466608,-0.79,-0.47,-0.36,1.83,0.12,-3.72
1777399830728,2466618,-0.79,-0.47,-0.36,2.38,0.49,-3.05
1777399830728,2466628,-0.78,-0.48,-0.36,2.93,0.61,-3.11
1777399830728,2466638,-0.78,-0.47,-0.35,3.60,0.31,-3.36
1777399830728,2466648,-0.77,-0.47,-0.35,4.33,-0.37,-2.81
1777399830728,2466658,-0.76,-0.47,-0.34,4.76,-1.04,-2.44
1777399830728,2466668,-0.76,-0.48,-0.34,5.00,-1.83,-2.44
1777399830728,2466688,-0.75,-0.48,-0.33,5.86,-3.11,-1.46
1777399830728,2466708,-0.75,-0.49,-0.32,5.74,-3.11,-1.65
1777399830728,2466728,-0.76,-0.50,-0.32,5.43,-3.78,-2.32
1777399830729,2466748,-0.76,-0.50,-0.32,3.85,-4.39,-2.75
1777399830729,2466758,-0.75,-0.50,-0.33,3.23,-5.25,-2.69
1777399830729,2466768,-0.75,-0.51,-0.33,2.87,-5.80,-2.38
1777399830729,2466778,-0.75,-0.52,-0.33,2.44,-5.92,-2.20
1777399830729,2466788,-0.75,-0.52,-0.33,2.14,-6.47,-2.26
1777399830729,2466798,-0.75,-0.52,-0.33,1.59,-7.08,-2.50
1777399830729,2466808,-0.76,-0.53,-0.34,1.22,-7.75,-2.50
1777399830729,2466818,-0.77,-0.54,-0.34,0.98,-8.06,-2.93
1777399830730,2466828,-0.78,-0.55,-0.34,0.61,-7.93,-4.03
1777399830730,2466838,-0.79,-0.55,-0.34,0.31,-7.87,-5.25
1777399830730,2466848,-0.80,-0.55,-0.34,-0.12,-7.75,-6.10
1777399830730,2466858,-0.81,-0.54,-0.35,-0.79,-7.20,-6.77
1777399830730,2466868,-0.82,-0.54,-0.35,-1.40,-6.16,-7.45
1777399830730,2466878,-0.83,-0.54,-0.35,-1.83,-4.88,-8.30
1777399830730,2466888,-0.83,-0.53,-0.34,-1.95,-3.72,-9.64
1777399830730,2466898,-0.84,-0.53,-0.34,-2.01,-3.11,-11.17
1777399830730,2466908,-0.83,-0.52,-0.34,-1.83,-3.60,-12.57
1777399830731,2466918,-0.83,-0.52,-0.34,-1.77,-4.33,-13.67
1777399830731,2466928,-0.83,-0.51,-0.35,-1.59,-4.70,-14.16
1777399830731,2466938,-0.82,-0.51,-0.36,-1.71,-3.97,-14.40
1777399830731,2466948,-0.81,-0.50,-0.36,-2.50,-2.62,-14.71
1777399830731,2466958,-0.81,-0.50,-0.37,-2.81,-1.16,-14.89
1777399830731,2466968,-0.80,-0.49,-0.37,-2.56,0.55,-14.89
1777399830731,2466978,-0.80,-0.49,-0.37,-2.26,1.89,-14.89
1777399830731,2466988,-0.79,-0.48,-0.37,-1.95,2.38,-14.89
1777399830732,2466998,-0.78,-0.48,-0.37,-1.83,2.26,-14.95
1777399830732,2467008,-0.77,-0.47,-0.38,-1.28,2.14,-15.08
1777399830732,2467018,-0.76,-0.48,-0.38,-0.67,2.01,-13.67
1777399830732,2467038,-0.73,-0.48,-0.40,2.69,0.49,-12.27
1777399830732,2467058,-0.72,-0.48,-0.40,5.86,1.34,-11.54
1777399830732,2467078,-0.72,-0.48,-0.37,7.75,2.20,-9.46
1777399830732,2467098,-0.72,-0.49,-0.36,7.69,1.34,-8.42
1777399830732,2467108,-0.72,-0.49,-0.35,7.57,0.73,-7.93
1777399830733,2467118,-0.72,-0.50,-0.34,7.75,-0.18,-6.71
1777399830733,2467128,-0.73,-0.50,-0.34,7.81,-1.46,-6.23
1777399830733,2467138,-0.73,-0.50,-0.35,7.93,-2.38,-6.23
1777399830733,2467148,-0.73,-0.51,-0.34,8.12,-2.75,-6.16
1777399830733,2467158,-0.72,-0.51,-0.33,8.18,-3.48,-6.84
1777399830733,2467168,-0.71,-0.51,-0.33,7.81,-4.39,-7.69
1777399830733,2467178,-0.70,-0.52,-0.33,7.57,-5.49,-7.26
1777399830733,2467188,-0.70,-0.53,-0.34,7.69,-6.10,-6.41
1777399830733,2467198,-0.69,-0.54,-0.32,7.63,-6.16,-6.29
1777399830734,2467208,-0.69,-0.54,-0.32,7.02,-6.90,-6.96
1777399830734,2467218,-0.69,-0.54,-0.33,6.53,-7.57,-6.35
1777399830734,2467228,-0.69,-0.55,-0.33,6.41,-8.06,-5.19
1777399830734,2467238,-0.70,-0.55,-0.32,5.98,-8.18,-4.76
1777399830734,2467248,-0.71,-0.55,-0.31,4.94,-8.54,-4.46
1777399830734,2467258,-0.72,-0.56,-0.31,3.91,-9.40,-3.72
1777399830734,2467268,-0.73,-0.57,-0.32,3.23,-10.19,-3.11
1777399830734,2467278,-0.74,-0.57,-0.32,2.56,-10.68,-3.30
1777399830735,2467288,-0.74,-0.56,-0.33,1.83,-10.80,-3.48
1777399830735,2467298,-0.75,-0.56,-0.34,1.22,-10.19,-3.54
1777399830735,2467308,-0.75,-0.56,-0.35,0.73,-8.61,-3.78
1777399830735,2467318,-0.76,-0.55,-0.34,0.31,-6.84,-3.30
1777399830735,2467328,-0.78,-0.55,-0.34,0.00,-6.10,-2.38
1777399830735,2467338,-0.79,-0.55,-0.34,-0.37,-5.92,-2.56
1777399830735,2467348,-0.79,-0.55,-0.34,-0.61,-5.80,-3.91
1777399830735,2467358,-0.79,-0.54,-0.34,-0.73,-6.10,-4.94
1777399830735,2467378,-0.78,-0.53,-0.36,-1.34,-5.55,-3.85
1777399830736,2467398,-0.77,-0.52,-0.37,-1.16,-2.75,-4.15
1777399830736,2467418,-0.77,-0.51,-0.37,-0.67,-1.34,-1.53
1777399830736,2467438,-0.76,-0.50,-0.38,-0.18,-0.67,-1.53
1777399830736,2467448,-0.76,-0.50,-0.38,0.55,0.00,-1.34
1777399830736,2467458,-0.76,-0.50,-0.37,1.65,0.43,-1.10
1777399830736,2467468,-0.75,-0.49,-0.37,2.38,-0.37,-0.73
1777399830736,2467478,-0.75,-0.49,-0.37,2.32,-2.01,-0.24
1777399830736,2467488,-0.76,-0.49,-0.38,2.44,-3.42,-0.06
1777399830736,2467498,-0.76,-0.49,-0.39,3.42,-3.60,0.18
1777399830737,2467508,-0.76,-0.48,-0.39,4.15,-2.50,-0.43
1777399830737,2467518,-0.77,-0.49,-0.38,4.52,-1.34,-1.04
1777399830737,2467528,-0.78,-0.49,-0.37,4.88,-0.85,-1.22
1777399830737,2467538,-0.78,-0.48,-0.39,5.13,-0.55,-2.14
1777399830737,2467548,-0.77,-0.49,-0.38,5.55,0.24,-2.44
1777399830737,2467558,-0.76,-0.50,-0.37,6.47,0.00,-2.01
1777399830737,2467568,-0.76,-0.50,-0.37,7.08,-0.55,-2.81
1777399830737,2467578,-0.74,-0.50,-0.37,7.45,-1.53,-3.42
1777399830738,2467588,-0.73,-0.51,-0.37,8.48,-2.93,-3.60
1777399830738,2467598,-0.74,-0.51,-0.36,9.52,-4.15,-4.09
1777399830738,2467608,-0.73,-0.51,-0.35,9.77,-5.13,-5.00
1777399830738,2467618,-0.72,-0.52,-0.34,9.52,-6.10,-5.25
1777399830738,2467628,-0.72,-0.54,-0.34,9.52,-6.71,-5.07
1777399830738,2467638,-0.73,-0.54,-0.34,9.34,-6.90,-5.37
1777399830738,2467648,-0.73,-0.54,-0.33,8.61,-6.96,-5.37
1777399830738,2467658,-0.73,-0.55,-0.33,7.87,-6.77,-4.52
1777399830738,2467668,-0.73,-0.56,-0.33,7.26,-6.53,-4.27
1777399830739,2467678,-0.74,-0.57,-0.31,6.41,-6.47,-5.07
1777399830739,2467688,-0.74,-0.57,-0.31,5.80,-7.20,-5.55
1777399830739,2467698,-0.74,-0.57,-0.32,5.07,-7.81,-5.80
1777399830739,2467708,-0.75,-0.58,-0.31,4.33,-7.75,-6.90
1777399830739,2467728,-0.76,-0.58,-0.30,2.56,-8.54,-7.93
1777399830739,2467748,-0.75,-0.57,-0.32,1.16,-8.42,-8.54
1777399830739,2467768,-0.73,-0.57,-0.32,-0.55,-7.93,-8.67
1777399830739,2467788,-0.72,-0.57,-0.33,-1.71,-7.51,-8.42
1777399830739,2467798,-0.71,-0.57,-0.32,-1.71,-7.75,-7.87
1777399830740,2467808,-0.71,-0.57,-0.32,-2.01,-8.42,-7.20
1777399830740,2467818,-0.70,-0.57,-0.32,-2.44,-9.52,-7.69
1777399830740,2467828,-0.70,-0.58,-0.32,-2.38,-10.99,-8.18
1777399830740,2467838,-0.69,-0.57,-0.32,-2.14,-12.45,-8.24
1777399830740,2467848,-0.68,-0.57,-0.33,-2.62,-13.55,-8.30
1777399830740,2467858,-0.68,-0.57,-0.33,-3.48,-14.04,-7.39
1777399830740,2467868,-0.69,-0.57,-0.31,-4.46,-13.61,-5.37
1777399830740,2467878,-0.71,-0.57,-0.31,-5.68,-14.34,-4.03
1777399830741,2467888,-0.73,-0.56,-0.32,-6.90,-14.71,-3.48
1777399830741,2467898,-0.74,-0.57,-0.32,-7.93,-14.16,-2.93
1777399830741,2467908,-0.76,-0.56,-0.34,-8.48,-12.88,-3.05
1777399830741,2467918,-0.77,-0.55,-0.34,-8.54,-10.07,-2.32
1777399830741,2467928,-0.80,-0.55,-0.33,-8.61,-8.12,-1.34
1777399830741,2467938,-0.82,-0.54,-0.34,-8.67,-7.51,-0.98
1777399830741,2467948,-0.84,-0.53,-0.32,-9.03,-6.90,-1.10
1777399830741,2467958,-0.84,-0.52,-0.34,-9.52,-6.77,-1.53
1777399830741,2467968,-0.84,-0.50,-0.36,-10.01,-5.62,-2.32
1777399830742,2467978,-0.84,-0.49,-0.37,-9.89,-3.17,-2.38
1777399830742,2467988,-0.84,-0.48,-0.38,-9.22,-0.61,-2.38
1777399830742,2467998,-0.83,-0.47,-0.39,-8.18,1.77,-2.32
1777399830742,2468008,-0.82,-0.46,-0.39,-7.08,4.03,-1.83
1777399830742,2468018,-0.81,-0.46,-0.40,-6.10,5.25,-1.46
1777399830742,2468028,-0.79,-0.45,-0.40,-5.00,5.62,-1.59
1777399830742,2468038,-0.79,-0.44,-0.40,-3.66,5.19,-1.10
1777399830742,2468048,-0.78,-0.44,-0.41,-2.32,4.15,-0.37
1777399830742,2468058,-0.77,-0.43,-0.41,-0.73,2.99,-0.24
1777399830742,2468078,-0.75,-0.43,-0.42,4.33,0.55,0.98
1777399830743,2468098,-0.74,-0.45,-0.40,7.02,-0.24,2.14
1777399830743,2468118,-0.74,-0.45,-0.38,8.06,-1.71,2.75
1777399830743,2468128,-0.75,-0.46,-0.37,7.93,-2.69,3.48
1777399830743,2468138,-0.75,-0.47,-0.36,7.63,-2.93,3.66
1777399830743,2468148,-0.75,-0.48,-0.36,7.08,-2.87,3.91
1777399830743,2468158,-0.76,-0.49,-0.35,6.53,-2.87,4.03
1777399830743,2468168,-0.76,-0.49,-0.35,5.98,-2.99,3.85
1777399830743,2468178,-0.76,-0.50,-0.35,5.49,-3.23,3.48
1777399830744,2468188,-0.76,-0.50,-0.35,5.13,-3.60,2.56
1777399830744,2468198,-0.76,-0.51,-0.35,4.94,-3.54,1.28
1777399830744,2468208,-0.76,-0.51,-0.35,4.76,-3.23,0.67
1777399830744,2468218,-0.76,-0.51,-0.35,4.46,-2.93,0.61
1777399830744,2468228,-0.76,-0.51,-0.35,4.21,-2.87,0.61
1777399830744,2468238,-0.76,-0.51,-0.35,3.85,-3.11,0.18
1777399830744,2468248,-0.76,-0.51,-0.35,3.11,-3.48,-0.92
1777399830744,2468258,-0.75,-0.51,-0.35,2.75,-3.78,-1.77
1777399830744,2468268,-0.75,-0.51,-0.35,2.56,-4.58,-2.50
1777399830744,2468278,-0.75,-0.52,-0.35,2.26,-5.62,-3.36
1777399830745,2468288,-0.74,-0.52,-0.35,2.26,-6.84,-4.46
1777399830745,2468298,-0.73,-0.52,-0.36,2.32,-8.00,-5.37
1777399830745,2468308,-0.73,-0.52,-0.37,2.38,-8.36,-5.92
1777399830745,2468318,-0.74,-0.52,-0.37,2.32,-8.00,-5.80
1777399830745,2468328,-0.75,-0.51,-0.36,2.26,-7.26,-4.94
1777399830745,2468338,-0.76,-0.51,-0.36,1.83,-6.35,-4.21
1777399830745,2468348,-0.78,-0.51,-0.36,1.34,-5.31,-4.15
1777399830745,2468358,-0.80,-0.50,-0.35,1.04,-4.46,-4.58
1777399830745,2468368,-0.80,-0.50,-0.35,0.85,-4.46,-5.43
1777399830745,2468378,-0.81,-0.50,-0.35,0.98,-5.00,-7.02
1777399830746,2468388,-0.80,-0.50,-0.35,1.10,-6.10,-8.67
1777399830746,2468398,-0.79,-0.50,-0.36,1.16,-7.26,-10.13
1777399830746,2468418,-0.76,-0.50,-0.38,1.95,-7.93,-10.44
1777399830746,2468438,-0.75,-0.50,-0.37,2.75,-6.41,-9.77
1777399830746,2468458,-0.77,-0.51,-0.37,2.81,-6.53,-9.40
1777399830746,2468478,-0.78,-0.52,-0.37,2.14,-5.98,-9.16
1777399830746,2468488,-0.78,-0.52,-0.37,2.01,-5.55,-8.97
1777399830746,2468498,-0.79,-0.52,-0.37,2.01,-5.07,-8.97
1777399830746,2468508,-0.79,-0.51,-0.37,1.95,-4.52,-8.61
1777399830747,2468518,-0.79,-0.51,-0.37,1.71,-3.72,-8.79
1777399830747,2468528,-0.79,-0.51,-0.38,1.53,-2.69,-9.16
1777399830747,2468538,-0.79,-0.50,-0.38,1.95,-1.65,-9.22
1777399830747,2468548,-0.79,-0.50,-0.37,2.38,-0.85,-9.03
1777399830747,2468558,-0.79,-0.50,-0.36,2.44,-0.55,-9.64
1777399830747,2468568,-0.78,-0.50,-0.36,2.56,-0.79,-10.80
1777399830747,2468578,-0.78,-0.50,-0.36,3.05,-1.22,-10.80
1777399830747,2468588,-0.77,-0.49,-0.37,3.36,-1.59,-10.50
1777399830747,2468598,-0.76,-0.49,-0.37,3.05,-1.28,-10.38
1777399830747,2468608,-0.75,-0.49,-0.37,3.11,-0.43,-9.83
1777399830748,2468618,-0.74,-0.49,-0.36,3.05,0.24,-8.61
1777399830748,2468628,-0.74,-0.49,-0.36,2.87,0.00,-7.20
1777399830748,2468638,-0.74,-0.49,-0.36,2.75,-0.49,-6.04
1777399830748,2468648,-0.74,-0.49,-0.36,2.62,-0.49,-5.49
1777399830748,2468658,-0.73,-0.49,-0.37,2.62,-0.31,-5.62
1777399830748,2468668,-0.73,-0.48,-0.37,2.87,0.06,-5.31
1777399830748,2468678,-0.72,-0.49,-0.37,3.17,0.00,-5.00
1777399830748,2468688,-0.72,-0.49,-0.37,3.42,-0.31,-5.07
1777399830748,2468698,-0.73,-0.49,-0.37,4.03,-1.10,-4.58
1777399830748,2468708,-0.73,-0.49,-0.38,4.58,-1.95,-4.03
1777399830749,2468718,-0.73,-0.50,-0.38,4.82,-2.62,-3.60
1777399830749,2468728,-0.73,-0.50,-0.38,5.07,-3.11,-3.54
1777399830749,2468738,-0.74,-0.50,-0.37,5.31,-3.30,-3.60
1777399830749,2468748,-0.74,-0.50,-0.37,5.37,-3.23,-3.66
1777399830749,2468768,-0.74,-0.51,-0.37,5.68,-3.48,-3.78
1777399830749,2468788,-0.74,-0.52,-0.37,6.04,-4.64,-4.64
1777399830749,2468808,-0.73,-0.53,-0.37,6.29,-5.74,-5.19
1777399830749,2468828,-0.74,-0.54,-0.36,6.04,-6.29,-4.94
1777399830749,2468838,-0.74,-0.54,-0.36,5.37,-6.53,-4.94
1777399830749,2468848,-0.74,-0.55,-0.36,4.82,-6.53,-5.31
1777399830750,2468858,-0.74,-0.54,-0.36,4.46,-6.59,-5.55
1777399830750,2468868,-0.75,-0.54,-0.36,3.91,-5.92,-5.86
1777399830750,2468878,-0.76,-0.54,-0.36,3.05,-5.25,-6.41
1777399830750,2468888,-0.76,-0.54,-0.36,2.44,-4.70,-6.47
1777399830750,2468898,-0.77,-0.54,-0.36,2.14,-4.52,-6.59
1777399830750,2468908,-0.77,-0.53,-0.37,2.08,-4.27,-6.65
1777399830750,2468918,-0.78,-0.53,-0.37,2.26,-3.97,-6.77
1777399830750,2468928,-0.78,-0.52,-0.38,2.56,-3.60,-7.02
1777399830750,2468938,-0.78,-0.52,-0.38,2.93,-3.17,-7.32
1777399830750,2468948,-0.78,-0.52,-0.38,3.42,-2.93,-8.06
1777399830751,2468958,-0.78,-0.52,-0.38,4.03,-2.62,-9.03
1777399830751,2468968,-0.78,-0.52,-0.39,4.76,-2.56,-10.13
1777399830751,2468978,-0.77,-0.52,-0.38,5.62,-2.99,-11.05
1777399830751,2468988,-0.77,-0.52,-0.38,6.35,-3.60,-11.90
1777399830751,2468998,-0.76,-0.52,-0.38,6.53,-3.72,-12.57
1777399830751,2469008,-0.75,-0.51,-0.39,6.59,-3.36,-12.82
1777399830751,2469018,-0.75,-0.51,-0.39,6.16,-2.08,-12.45
1777399830751,2469028,-0.74,-0.51,-0.39,5.62,-0.49,-11.72
1777399830751,2469038,-0.74,-0.51,-0.38,5.37,0.73,-11.23
1777399830752,2469048,-0.73,-0.52,-0.37,5.31,0.79,-11.23
1777399830754,2469058,-0.72,-0.52,-0.37,5.49,-0.55,-11.90
1777399830764,2469068,-0.71,-0.52,-0.39,6.41,-2.38,-12.57
1777399830774,2469078,-0.70,-0.53,-0.39,7.39,-3.30,-13.31
1777399830784,2469088,-0.70,-0.53,-0.39,8.79,-3.54,-14.16
1777399830804,2469108,-0.72,-0.55,-0.35,11.47,-8.36,-17.70
1777399830824,2469128,-0.71,-0.57,-0.37,14.77,-10.99,-18.19
1777399830844,2469148,-0.74,-0.59,-0.36,14.65,-9.77,-18.25
1777399830864,2469168,-0.74,-0.60,-0.35,17.33,-7.51,-21.91
1777399830874,2469178,-0.74,-0.59,-0.37,19.90,-6.90,-21.73
1777399830884,2469188,-0.73,-0.60,-0.38,22.83,-5.31,-21.61
1777399830894,2469198,-0.72,-0.62,-0.38,26.31,-2.99,-21.30
1777399830904,2469208,-0.72,-0.62,-0.36,29.91,-1.04,-21.06
1777399830914,2469218,-0.73,-0.62,-0.32,31.19,-0.98,-21.85
1777399830924,2469228,-0.73,-0.63,-0.29,30.64,-3.72,-23.25
1777399830934,2469238,-0.73,-0.63,-0.29,28.87,-8.97,-24.54
1777399830944,2469248,-0.73,-0.62,-0.31,27.04,-13.98,-25.33
1777399830954,2469258,-0.72,-0.62,-0.33,26.18,-16.42,-25.76
1777399830964,2469268,-0.71,-0.62,-0.33,26.43,-15.81,-26.18
1777399830974,2469278,-0.70,-0.61,-0.31,26.55,-13.67,-25.76
1777399830984,2469288,-0.69,-0.60,-0.31,25.51,-10.93,-24.41
1777399830994,2469298,-0.68,-0.61,-0.30,23.50,-7.93,-22.46
1777399831004,2469308,-0.67,-0.61,-0.30,21.24,-4.52,-20.08
1777399831014,2469318,-0.67,-0.61,-0.30,19.59,-1.10,-16.85
1777399831024,2469328,-0.68,-0.62,-0.30,18.74,2.08,-13.73
1777399831034,2469338,-0.69,-0.63,-0.27,18.19,4.21,-12.33
1777399831044,2469348,-0.71,-0.65,-0.25,17.09,4.09,-12.70
1777399831054,2469358,-0.71,-0.65,-0.24,15.93,1.10,-14.22
1777399831064,2469368,-0.70,-0.65,-0.24,15.08,-3.60,-15.63
1777399831074,2469378,-0.68,-0.64,-0.24,13.55,-8.12,-15.99
1777399831084,2469388,-0.68,-0.64,-0.27,11.60,-11.96,-15.38
1777399831094,2469398,-0.67,-0.64,-0.28,10.25,-13.67,-14.16
1777399831104,2469408,-0.67,-0.64,-0.29,9.89,-12.94,-12.51
1777399831114,2469418,-0.66,-0.64,-0.30,9.77,-10.44,-9.95
1777399831124,2469428,-0.67,-0.64,-0.30,9.70,-6.90,-7.08
1777399831134,2469438,-0.68,-0.64,-0.29,9.64,-2.50,-3.60
1777399831155,2469458,-0.70,-0.65,-0.23,3.17,1.16,-3.11
1777399831174,2469478,-0.70,-0.66,-0.25,2.20,-6.41,-5.31
1777399831194,2469498,-0.68,-0.65,-0.26,1.59,-11.96,-5.25
1777399831214,2469518,-0.67,-0.64,-0.28,0.06,-11.23,-3.72
1777399831224,2469528,-0.67,-0.63,-0.27,0.24,-8.79,-2.38
1777399831234,2469538,-0.68,-0.63,-0.27,1.04,-7.39,-0.79
1777399831244,2469548,-0.67,-0.64,-0.26,1.40,-6.77,0.67
1777399831254,2469558,-0.68,-0.63,-0.25,0.37,-6.04,1.40
1777399831264,2469568,-0.68,-0.63,-0.25,-2.32,-6.10,2.20
1777399831274,2469578,-0.68,-0.63,-0.27,-5.37,-7.26,3.05
1777399831284,2469588,-0.67,-0.63,-0.30,-7.02,-8.06,2.93
1777399831294,2469598,-0.68,-0.62,-0.30,-6.71,-7.69,2.38
1777399831304,2469608,-0.68,-0.62,-0.29,-6.35,-7.51,2.69
1777399831314,2469618,-0.68,-0.61,-0.30,-6.59,-8.24,3.60
1777399831324,2469628,-0.69,-0.62,-0.33,-6.77,-8.00,3.97
1777399831334,2469638,-0.70,-0.61,-0.34,-5.86,-6.04,3.54
1777399831344,2469648,-0.70,-0.61,-0.33,-4.46,-3.85,2.44
1777399831354,2469658,-0.71,-0.61,-0.33,-3.17,-2.56,2.26
1777399831364,2469668,-0.72,-0.62,-0.33,-1.34,-2.26,2.44
1777399831374,2469678,-0.73,-0.63,-0.32,0.67,-3.11,0.67
1777399831384,2469688,-0.73,-0.63,-0.31,1.65,-5.19,-1.65
1777399831394,2469698,-0.72,-0.63,-0.32,1.89,-8.42,-3.48
1777399831404,2469708,-0.71,-0.64,-0.33,1.83,-10.74,-5.98
1777399831414,2469718,-0.70,-0.63,-0.33,2.26,-11.90,-8.30
1777399831424,2469728,-0.70,-0.62,-0.34,2.75,-12.57,-10.07
1777399831434,2469738,-0.70,-0.62,-0.34,2.99,-11.60,-10.93
1777399831445,2469748,-0.71,-0.61,-0.34,3.23,-9.34,-10.38
1777399831454,2469758,-0.71,-0.61,-0.33,2.62,-7.02,-8.97
1777399831464,2469768,-0.73,-0.62,-0.33,1.89,-5.13,-7.20
1777399831474,2469778,-0.74,-0.63,-0.33,2.32,-3.78,-6.35
1777399831494,2469798,-0.75,-0.65,-0.32,0.61,-3.48,-8.67
1777399831514,2469818,-0.77,-0.67,-0.34,-1.04,-8.24,-12.57
1777399831534,2469838,-0.77,-0.67,-0.34,0.85,-9.89,-17.88
1777399831554,2469858,-0.75,-0.68,-0.33,0.61,-6.10,-17.88
1777399831564,2469868,-0.75,-0.69,-0.33,-0.55,-2.20,-16.72
1777399831574,2469878,-0.74,-0.69,-0.32,-2.32,2.44,-15.32
1777399831584,2469888,-0.74,-0.70,-0.31,-4.82,7.02,-13.92
1777399831594,2469898,-0.74,-0.69,-0.30,-7.63,10.99,-12.45
1777399831605,2469908,-0.74,-0.70,-0.30,-10.56,14.16,-11.96
1777399831614,2469918,-0.73,-0.69,-0.30,-13.37,16.66,-14.16
1777399831624,2469928,-0.72,-0.69,-0.31,-15.08,17.82,-16.85
1777399831634,2469938,-0.70,-0.69,-0.31,-15.20,17.76,-17.76
1777399831644,2469948,-0.69,-0.69,-0.32,-14.47,16.97,-18.31
1777399831654,2469958,-0.67,-0.68,-0.32,-14.10,16.30,-19.41
1777399831668,2469968,-0.65,-0.68,-0.33,-13.98,16.11,-19.78
1777399831674,2469978,-0.64,-0.67,-0.33,-13.49,16.54,-18.19
1777399831684,2469988,-0.63,-0.67,-0.33,-13.73,17.15,-16.05
1777399831694,2469998,-0.63,-0.67,-0.33,-15.44,17.82,-14.95
1777399831704,2470008,-0.63,-0.67,-0.34,-17.09,18.25,-14.16
1777399831714,2470018,-0.62,-0.67,-0.35,-18.13,18.62,-13.49
1777399831724,2470028,-0.62,-0.67,-0.36,-18.37,18.98,-13.37
1777399831734,2470038,-0.61,-0.67,-0.36,-18.37,19.65,-13.49
1777399831744,2470048,-0.61,-0.65,-0.38,-19.47,19.96,-13.06
1777399831754,2470058,-0.60,-0.66,-0.38,-21.61,21.00,-11.72
1777399831764,2470068,-0.61,-0.67,-0.39,-23.50,21.73,-10.38
1777399831774,2470078,-0.61,-0.68,-0.39,-23.80,21.00,-9.34
1777399831784,2470088,-0.61,-0.67,-0.41,-22.89,18.43,-8.54
1777399831794,2470098,-0.61,-0.67,-0.44,-21.30,16.72,-8.54
1777399831804,2470108,-0.60,-0.65,-0.44,-19.71,17.21,-9.28
1777399831814,2470118,-0.60,-0.65,-0.44,-20.02,18.43,-9.09
1777399831824,2470128,-0.59,-0.64,-0.43,-21.24,18.92,-6.90
1777399831844,2470148,-0.58,-0.64,-0.45,-23.01,15.87,-6.53
1777399831864,2470168,-0.56,-0.61,-0.47,-19.71,16.11,-5.49
1777399831884,2470188,-0.56,-0.61,-0.44,-14.71,15.14,-5.31
1777399831904,2470208,-0.54,-0.61,-0.45,-10.93,11.17,-6.41
1777399831914,2470218,-0.53,-0.61,-0.44,-8.61,8.73,-5.74
1777399831924,2470228,-0.52,-0.62,-0.44,-6.77,5.13,-4.88
1777399831934,2470238,-0.52,-0.61,-0.43,-4.76,1.34,-3.91
1777399831944,2470248,-0.53,-0.61,-0.42,-3.17,-2.44,-2.93
1777399831954,2470258,-0.55,-0.60,-0.41,-2.08,-5.98,-3.11
1777399831964,2470268,-0.56,-0.60,-0.40,-1.53,-9.28,-4.58
1777399831974,2470278,-0.55,-0.59,-0.39,-1.34,-12.27,-6.23
1777399831984,2470288,-0.55,-0.59,-0.39,-1.46,-15.38,-6.59
1777399831994,2470298,-0.54,-0.59,-0.40,-1.46,-17.82,-5.31
1777399832004,2470308,-0.54,-0.58,-0.41,-1.22,-18.68,-4.39
1777399832014,2470318,-0.55,-0.57,-0.40,-1.46,-17.88,-3.85
1777399832024,2470328,-0.55,-0.57,-0.39,-2.14,-16.85,-3.30
1777399832034,2470338,-0.55,-0.57,-0.38,-3.17,-16.48,-2.08
1777399832044,2470348,-0.57,-0.57,-0.36,-3.60,-17.58,0.31
1777399832054,2470358,-0.59,-0.58,-0.34,-3.54,-20.14,1.65
1777399832064,2470368,-0.60,-0.57,-0.37,-3.66,-24.11,0.00
1777399832074,2470378,-0.60,-0.56,-0.40,-3.30,-25.94,-2.87
1777399832084,2470388,-0.60,-0.54,-0.41,-2.08,-25.45,-4.88
1777399832094,2470398,-0.59,-0.53,-0.40,-1.16,-23.68,-4.88
1777399832104,2470408,-0.60,-0.53,-0.39,-1.53,-21.85,-3.66
1777399832114,2470418,-0.60,-0.53,-0.41,-2.50,-20.81,-2.81
1777399832124,2470428,-0.60,-0.52,-0.42,-2.69,-19.71,-2.81
1777399832134,2470438,-0.61,-0.52,-0.42,-2.38,-17.76,-1.95
1777399832144,2470448,-0.62,-0.52,-0.42,-2.38,-16.36,-0.12
1777399832154,2470458,-0.63,-0.53,-0.43,-2.87,-15.81,1.40
1777399832164,2470468,-0.63,-0.54,-0.44,-2.44,-15.26,2.50
1777399832174,2470478,-0.64,-0.54,-0.43,-0.92,-30.76,3.72
1777399832194,2470498,-0.65,-0.54,-0.43,1.34,-17.76,3.30
1777399832214,2470518,-0.67,-0.55,-0.46,2.56,-18.68,2.20
1777399832234,2470538,-0.68,-0.55,-0.47,2.69,-15.99,3.48
1777399832245,2470548,-0.68,-0.56,-0.47,2.62,-14.59,4.76
1777399832254,2470558,-0.69,-0.57,-0.48,2.93,-13.43,5.07
1777399832264,2470568,-0.71,-0.58,-0.48,3.78,-11.96,4.82
1777399832274,2470578,-0.73,-0.59,-0.46,5.25,-11.35,4.33
1777399832284,2470588,-0.73,-0.60,-0.46,6.29,-11.84,3.36
1777399832294,2470598,-0.73,-0.60,-0.46,6.53,-12.88,1.59
1777399832304,2470608,-0.73,-0.60,-0.46,6.53,-13.12,0.06
1777399832314,2470618,-0.73,-0.59,-0.46,6.59,-12.70,-0.37
1777399832324,2470628,-0.73,-0.58,-0.47,6.47,-11.41,-0.37
1777399832334,2470638,-0.72,-0.58,-0.47,6.29,-9.40,-0.85
1777399832344,2470648,-0.72,-0.57,-0.47,6.47,-6.71,-1.22
1777399832354,2470658,-0.71,-0.57,-0.46,6.29,-4.15,-1.40
1777399832364,2470668,-0.70,-0.58,-0.46,5.86,-2.87,-1.53
1777399832374,2470678,-0.70,-0.59,-0.46,5.55,-2.69,-1.59
1777399832384,2470688,-0.69,-0.60,-0.46,6.23,-3.66,-1.77
1777399832394,2470698,-0.68,-0.61,-0.46,7.20,-5.37,-2.32
1777399832404,2470708,-0.67,-0.60,-0.46,7.81,-6.77,-2.75
1777399832414,2470718,-0.67,-0.60,-0.46,7.93,-7.32,-3.23
1777399832424,2470728,-0.68,-0.59,-0.44,7.57,-7.08,-3.54
1777399832434,2470738,-0.68,-0.59,-0.45,6.90,-7.32,-3.17
1777399832444,2470748,-0.68,-0.59,-0.46,6.04,-6.65,-2.81
1777399832454,2470758,-0.67,-0.59,-0.48,5.92,-4.39,-2.38
1777399832464,2470768,-0.67,-0.60,-0.48,6.53,-1.10,-2.01
1777399832474,2470778,-0.66,-0.61,-0.47,7.45,2.01,-2.08
1777399832484,2470788,-0.66,-0.61,-0.46,8.48,3.66,-2.01
1777399832494,2470798,-0.67,-0.62,-0.45,9.28,3.23,-1.77
1777399832504,2470808,-0.67,-0.62,-0.46,9.46,1.77,-1.95
1777399832514,2470818,-0.66,-0.62,-0.47,9.40,0.79,-3.60
1777399832534,2470838,-0.65,-0.62,-0.46,9.70,1.77,-3.42
1777399832554,2470858,-0.65,-0.63,-0.44,9.03,0.24,-3.60
1777399832574,2470878,-0.64,-0.65,-0.45,9.28,1.10,-5.25
1777399832594,2470898,-0.65,-0.66,-0.41,11.54,0.73,-5.98
1777399832604,2470908,-0.64,-0.66,-0.39,11.17,-2.08,-7.08
1777399832614,2470918,-0.64,-0.66,-0.40,10.19,-6.10,-8.54
1777399832624,2470928,-0.63,-0.66,-0.39,9.28,-8.42,-9.03
1777399832634,2470938,-0.62,-0.66,-0.39,8.00,-10.01,-9.03
1777399832644,2470948,-0.62,-0.65,-0.38,6.41,-10.56,-8.48
1777399832654,2470958,-0.63,-0.65,-0.37,4.58,-10.56,-7.39
1777399832664,2470968,-0.63,-0.65,-0.37,2.62,-10.62,-6.65
1777399832674,2470978,-0.63,-0.65,-0.38,1.16,-10.44,-6.53
1777399832684,2470988,-0.63,-0.64,-0.38,0.55,-8.85,-6.65
1777399832694,2470998,-0.62,-0.64,-0.37,0.37,-6.59,-6.65
1777399832704,2471008,-0.62,-0.64,-0.36,0.06,-5.25,-6.47
1777399832714,2471018,-0.62,-0.64,-0.35,-0.85,-4.64,-6.59
1777399832724,2471028,-0.61,-0.63,-0.35,-2.01,-4.88,-6.71
1777399832734,2471038,-0.60,-0.62,-0.35,-3.48,-5.31,-6.04
1777399832744,2471048,-0.60,-0.62,-0.36,-4.70,-5.37,-3.91
1777399832754,2471058,-0.61,-0.61,-0.36,-5.62,-5.13,-1.77
1777399832764,2471068,-0.62,-0.61,-0.36,-6.90,-4.33,-1.10
1777399832774,2471078,-0.62,-0.61,-0.35,-8.42,-4.03,-1.59
1777399832784,2471088,-0.62,-0.61,-0.35,-9.46,-4.70,-2.26
1777399832794,2471098,-0.62,-0.60,-0.35,-10.01,-6.23,-2.32
1777399832804,2471108,-0.62,-0.60,-0.36,-9.95,-8.00,-1.46
1777399832814,2471118,-0.62,-0.59,-0.36,-9.77,-8.97,-0.43
1777399832824,2471128,-0.63,-0.60,-0.37,-9.52,-9.58,-0.24
1777399832834,2471138,-0.63,-0.59,-0.38,-9.09,-9.46,-1.22
1777399832844,2471148,-0.63,-0.58,-0.38,-8.79,-8.91,-2.14
1777399832854,2471158,-0.63,-0.57,-0.38,-9.16,-7.93,-1.83
1777399832864,2471168,-0.63,-0.56,-0.39,-9.70,-7.08,0.12
1777399832884,2471188,-0.65,-0.55,-0.40,-10.99,-2.50,1.83
1777399832904,2471208,-0.65,-0.54,-0.41,-11.60,-1.16,1.83
1777399832924,2471228,-0.66,-0.53,-0.41,-10.68,-0.37,2.50
1777399832934,2471238,-0.67,-0.53,-0.41,-10.01,-1.22,2.38
1777399832944,2471248,-0.67,-0.52,-0.42,-9.52,-3.05,1.65
1777399832954,2471258,-0.68,-0.52,-0.43,-8.54,-4.88,1.22
1777399832964,2471268,-0.68,-0.51,-0.43,-7.45,-6.23,0.67
1777399832974,2471278,-0.68,-0.50,-0.44,-6.53,-7.32,0.37
1777399832984,2471288,-0.69,-0.50,-0.44,-5.37,-8.12,0.18
1777399832994,2471298,-0.70,-0.50,-0.44,-4.39,-8.85,-0.24
1777399833004,2471308,-0.70,-0.50,-0.45,-3.30,-9.95,-1.04
1777399833014,2471318,-0.71,-0.50,-0.45,-2.26,-10.38,-1.89
1777399833024,2471328,-0.71,-0.50,-0.45,-1.22,-10.31,-2.93
1777399833034,2471338,-0.72,-0.50,-0.46,-0.61,-9.77,-3.66
1777399833044,2471348,-0.72,-0.50,-0.46,-0.12,-8.42,-3.85
1777399833054,2471358,-0.73,-0.51,-0.47,0.67,-6.65,-3.60
1777399833064,2471368,-0.74,-0.52,-0.47,1.71,-4.94,-3.30
1777399833074,2471378,-0.75,-0.53,-0.46,2.81,-3.97,-3.05
1777399833084,2471388,-0.75,-0.54,-0.46,4.03,-4.21,-3.36
1777399833094,2471398,-0.75,-0.54,-0.46,4.88,-5.37,-4.03
1777399833104,2471408,-0.75,-0.54,-0.47,5.31,-6.53,-4.58
1777399833114,2471418,-0.75,-0.54,-0.49,5.74,-6.65,-5.13
1777399833124,2471428,-0.75,-0.55,-0.49,6.16,-5.86,-5.74
1777399833134,2471438,-0.75,-0.56,-0.49,6.65,-4.64,-6.77
1777399833144,2471448,-0.76,-0.56,-0.48,6.96,-3.97,-8.36
1777399833154,2471458,-0.75,-0.56,-0.48,7.57,-5.07,-9.34
1777399833164,2471468,-0.73,-0.56,-0.50,8.48,-6.35,-10.13
1777399833174,2471478,-0.72,-0.56,-0.52,9.22,-5.74,-10.62
1777399833184,2471488,-0.71,-0.56,-0.53,10.13,-3.05,-10.19
1777399833194,2471498,-0.70,-0.56,-0.52,10.50,0.98,-9.58
1777399833204,2471508,-0.70,-0.57,-0.50,10.56,4.52,-8.79
1777399833224,2471528,-0.70,-0.58,-0.49,9.77,4.88,-9.22
1777399833244,2471548,-0.67,-0.59,-0.51,10.44,2.01,-9.77
1777399833264,2471568,-0.64,-0.60,-0.53,11.47,5.07,-9.16
1777399833284,2471588,-0.63,-0.60,-0.52,12.88,12.15,-10.01
1777399833294,2471598,-0.63,-0.61,-0.50,13.43,15.01,-9.28
1777399833304,2471608,-0.64,-0.63,-0.47,13.98,16.42,-8.54
1777399833314,2471618,-0.65,-0.64,-0.44,14.04,14.77,-8.85
1777399833324,2471628,-0.64,-0.65,-0.44,13.85,10.07,-10.13
1777399833334,2471638,-0.62,-0.65,-0.45,13.85,4.27,-10.99
1777399833344,2471648,-0.61,-0.65,-0.47,13.98,0.06,-11.54
1777399833354,2471658,-0.60,-0.65,-0.49,13.79,-1.16,-12.21
1777399833364,2471668,-0.59,-0.65,-0.49,13.55,-0.06,-12.27
1777399833374,2471678,-0.58,-0.66,-0.48,13.37,1.65,-11.41
1777399833384,2471688,-0.58,-0.66,-0.47,12.88,3.23,-10.86
1777399833394,2471698,-0.59,-0.66,-0.45,12.15,3.66,-10.86
1777399833404,2471708,-0.58,-0.66,-0.44,11.35,2.87,-11.17
1777399833414,2471718,-0.58,-0.66,-0.43,10.19,0.98,-11.78
1777399833424,2471728,-0.57,-0.65,-0.42,8.97,-1.77,-11.78
1777399833434,2471738,-0.56,-0.65,-0.43,7.75,-4.70,-10.74
1777399833444,2471748,-0.55,-0.65,-0.43,6.53,-6.71,-9.70
1777399833454,2471758,-0.55,-0.65,-0.43,5.62,-8.06,-8.91
1777399833464,2471768,-0.56,-0.65,-0.43,4.82,-8.61,-8.67
1777399833474,2471778,-0.56,-0.64,-0.43,4.52,-8.85,-9.09
1777399833484,2471788,-0.57,-0.64,-0.43,4.21,-8.24,-9.58
1777399833494,2471798,-0.57,-0.63,-0.42,3.97,-7.81,-9.22
1777399833504,2471808,-0.57,-0.63,-0.41,3.42,-8.00,-8.06
1777399833514,2471818,-0.58,-0.63,-0.40,2.08,-8.73,-6.77
1777399833524,2471828,-0.59,-0.63,-0.41,0.55,-10.01,-6.16
1777399833534,2471838,-0.59,-0.62,-0.40,-0.18,-11.11,-5.98
1777399833544,2471848,-0.59,-0.62,-0.40,-0.37,-12.33,-5.00
1777399833554,2471858,-0.60,-0.62,-0.40,-0.67,-13.67,-4.15
1777399833574,2471878,-0.61,-0.61,-0.40,-1.28,-16.17,-4.09
1777399833594,2471898,-0.63,-0.59,-0.39,-0.61,-14.22,-4.03
1777399833614,2471918,-0.66,-0.59,-0.38,-0.67,-13.49,-3.42
1777399833634,2471938,-0.67,-0.58,-0.38,-1.59,-14.04,-3.54
1777399833644,2471948,-0.67,-0.58,-0.38,-1.77,-13.92,-3.05
1777399833654,2471958,-0.68,-0.58,-0.37,-2.14,-13.67,-2.87
