host_time_ms,arduino_time_ms,ax,ay,az,gx,gy,gz
1777399471245,2105049,0.02,-0.01,1.00,2.32,-4.64,-5.13
1777399471245,2105069,0.02,-0.01,1.00,2.38,-4.76,-5.13
1777399471246,2105089,0.01,-0.01,1.00,2.50,-4.76,-4.52
1777399471246,2105099,0.02,-0.01,1.00,2.50,-4.70,-4.58
1777399471246,2105109,0.02,-0.01,1.00,2.56,-4.70,-4.58
1777399471246,2105119,0.02,-0.01,1.00,2.56,-4.76,-4.64
1777399471247,2105129,0.02,-0.01,1.00,2.56,-4.82,-4.64
1777399471247,2105139,0.02,-0.01,1.00,2.50,-4.82,-4.70
1777399471247,2105149,0.02,-0.01,1.00,2.44,-4.70,-4.94
1777399471247,2105159,0.02,-0.01,1.00,2.38,-4.70,-4.94
1777399471247,2105169,0.02,-0.01,1.00,2.38,-4.76,-4.88
1777399471248,2105179,0.02,-0.01,1.00,2.44,-4.76,-4.88
1777399471248,2105189,0.02,-0.00,1.00,2.44,-4.76,-4.88
1777399471248,2105199,0.02,-0.01,1.00,2.38,-4.70,-4.94
1777399471248,2105209,0.02,-0.01,1.00,2.26,-4.76,-5.13
1777399471248,2105219,0.02,-0.01,1.00,2.26,-4.70,-5.25
1777399471249,2105229,0.02,-0.01,1.00,2.26,-4.70,-5.19
1777399471249,2105239,0.02,-0.01,1.00,2.38,-4.70,-5.07
1777399471249,2105249,0.02,-0.00,1.00,2.38,-4.76,-4.88
1777399471249,2105259,0.02,-0.01,1.00,2.50,-4.76,-4.76
1777399471250,2105269,0.01,-0.00,1.00,2.56,-4.76,-4.58
1777399471250,2105279,0.02,-0.00,1.00,2.44,-4.76,-4.82
1777399471250,2105289,0.02,-0.01,1.00,2.32,-4.70,-5.19
1777399471250,2105299,0.02,-0.01,1.00,2.38,-4.70,-5.19
1777399471250,2105309,0.02,-0.01,1.00,2.32,-4.64,-5.31
1777399471251,2105319,0.02,-0.01,1.00,2.44,-4.70,-4.94
1777399471251,2105329,0.02,-0.00,1.00,2.62,-4.82,-4.46
1777399471251,2105339,0.02,-0.01,1.00,2.56,-4.70,-4.70
1777399471251,2105349,0.02,-0.01,1.00,2.44,-4.76,-4.88
1777399471252,2105359,0.02,-0.00,1.00,2.44,-4.88,-5.00
1777399471252,2105369,0.02,-0.00,1.00,2.38,-4.76,-5.25
1777399471252,2105389,0.02,-0.01,1.00,2.44,-4.76,-5.19
1777399471252,2105409,0.02,-0.01,1.00,2.44,-4.76,-4.94
1777399471253,2105429,0.02,-0.01,1.00,2.50,-4.76,-4.88
1777399471253,2105449,0.02,-0.01,1.00,2.44,-4.76,-4.76
1777399471253,2105459,0.02,-0.01,1.00,2.62,-4.82,-4.52
1777399471253,2105469,0.02,-0.01,1.00,2.50,-4.76,-4.88
1777399471254,2105479,0.02,-0.01,1.00,2.38,-4.64,-5.19
1777399471254,2105489,0.02,-0.01,1.00,2.44,-4.76,-5.00
1777399471255,2105499,0.02,-0.01,1.00,2.44,-4.82,-4.94
1777399471255,2105509,0.02,-0.01,1.00,2.44,-4.82,-4.88
1777399471255,2105519,0.02,-0.00,1.00,2.38,-4.82,-4.88
1777399471255,2105529,0.02,-0.00,1.00,2.44,-4.82,-4.94
1777399471256,2105539,0.02,-0.01,1.00,2.38,-4.76,-4.94
1777399471256,2105549,0.02,-0.01,1.00,2.44,-4.76,-4.70
1777399471256,2105559,0.02,-0.01,1.00,2.50,-4.76,-4.58
1777399471256,2105569,0.02,-0.01,1.00,2.50,-4.76,-4.76
1777399471257,2105579,0.02,-0.01,1.00,2.44,-4.82,-5.07
1777399471257,2105589,0.02,-0.01,1.00,2.44,-4.76,-4.94
1777399471257,2105599,0.02,-0.01,1.00,2.50,-4.70,-4.76
1777399471257,2105609,0.02,-0.00,1.00,2.50,-4.76,-4.58
1777399471257,2105619,0.02,-0.01,1.00,2.56,-4.76,-4.52
1777399471258,2105629,0.02,-0.01,1.00,2.50,-4.76,-4.76
1777399471258,2105639,0.02,-0.01,1.00,2.38,-4.76,-5.00
1777399471258,2105649,0.02,-0.01,1.00,2.38,-4.70,-5.00
1777399471258,2105659,0.02,-0.01,1.00,2.38,-4.70,-4.82
1777399471258,2105669,0.02,-0.01,1.00,2.44,-4.76,-4.70
1777399471259,2105679,0.02,-0.01,1.00,2.44,-4.82,-4.76
1777399471259,2105689,0.02,-0.00,1.00,2.38,-4.70,-4.94
1777399471259,2105699,0.02,-0.00,1.00,2.26,-4.76,-5.31
1777399471259,2105709,0.02,-0.00,1.00,2.38,-4.82,-5.07
1777399471259,2105719,0.02,-0.01,1.00,2.62,-4.76,-4.46
1777399471259,2105739,0.01,-0.01,1.00,2.44,-4.76,-4.88
1777399471260,2105759,0.02,-0.01,1.00,2.44,-4.70,-4.94
1777399471260,2105779,0.02,-0.01,1.00,2.50,-4.76,-4.76
1777399471260,2105799,0.02,-0.00,1.00,2.44,-4.76,-4.94
1777399471260,2105809,0.02,-0.01,1.00,2.56,-4.76,-4.58
1777399471260,2105819,0.02,-0.00,1.00,2.38,-4.76,-4.82
1777399471261,2105829,0.02,-0.01,1.00,2.26,-4.76,-5.19
1777399471261,2105839,0.02,-0.01,1.00,2.26,-4.82,-5.25
1777399471261,2105849,0.02,-0.01,1.00,2.26,-4.64,-5.19
1777399471261,2105859,0.02,-0.01,1.00,2.44,-4.76,-4.88
1777399471261,2105869,0.02,-0.00,1.00,2.62,-4.76,-4.52
1777399471261,2105879,0.02,-0.00,1.00,2.50,-4.76,-4.70
1777399471262,2105889,0.02,-0.01,1.00,2.44,-4.82,-4.82
1777399471262,2105899,0.02,-0.01,1.00,2.38,-4.76,-4.94
1777399471262,2105909,0.02,-0.01,1.00,2.32,-4.70,-5.13
1777399471262,2105919,0.02,-0.01,1.00,2.50,-4.76,-4.94
1777399471262,2105929,0.02,-0.01,1.00,2.50,-4.70,-4.88
1777399471263,2105939,0.01,-0.00,0.99,2.50,-4.76,-4.82
1777399471263,2105949,0.02,-0.00,1.00,2.50,-4.82,-4.70
1777399471263,2105959,0.02,-0.00,0.99,2.38,-4.82,-4.94
1777399471263,2105969,0.02,-0.01,1.01,2.26,-4.88,-5.19
1777399471263,2105979,0.02,-0.01,1.00,2.44,-4.70,-5.00
1777399471264,2105989,0.02,-0.01,1.00,2.62,-4.70,-4.58
1777399471264,2105999,0.01,-0.01,1.00,2.56,-4.76,-4.70
1777399471264,2106009,0.01,-0.00,1.00,2.50,-4.82,-4.76
1777399471264,2106019,0.01,-0.01,1.01,2.56,-4.76,-4.76
1777399471264,2106029,0.02,-0.01,1.00,2.56,-4.70,-4.76
1777399471265,2106039,0.02,-0.01,0.99,2.44,-4.76,-4.88
1777399471265,2106049,0.01,-0.00,1.00,2.44,-4.76,-5.07
1777399471265,2106059,0.01,-0.00,1.00,2.44,-4.76,-4.94
1777399471265,2106079,0.02,-0.01,1.00,2.44,-4.76,-4.70
1777399471265,2106099,0.02,-0.01,1.00,2.56,-4.82,-4.76
1777399471266,2106119,0.02,-0.01,1.00,2.50,-4.82,-4.82
1777399471266,2106139,0.02,-0.01,1.00,2.50,-4.76,-4.88
1777399471266,2106149,0.02,-0.00,1.00,2.50,-4.76,-4.82
1777399471266,2106159,0.02,-0.01,1.00,2.50,-4.82,-4.88
1777399471266,2106169,0.02,-0.01,1.00,2.44,-4.82,-4.76
1777399471266,2106179,0.02,-0.01,1.00,2.56,-4.82,-4.64
1777399471267,2106189,0.02,-0.01,1.00,2.56,-4.76,-4.64
1777399471267,2106199,0.02,-0.01,1.00,2.62,-4.70,-4.58
1777399471267,2106209,0.01,-0.00,1.00,2.62,-4.76,-4.64
1777399471267,2106219,0.02,-0.00,1.00,2.56,-4.76,-4.64
1777399471267,2106229,0.02,-0.01,1.00,2.50,-4.70,-4.58
1777399471267,2106239,0.02,-0.01,1.00,2.50,-4.70,-4.52
1777399471268,2106249,0.02,-0.01,1.00,2.44,-4.76,-4.76
1777399471268,2106259,0.02,-0.01,1.00,2.44,-4.76,-4.94
1777399471268,2106269,0.02,-0.01,1.00,2.44,-4.76,-4.88
1777399471268,2106279,0.02,-0.01,1.00,2.44,-4.76,-5.00
1777399471268,2106289,0.02,-0.01,1.00,2.44,-4.76,-5.00
1777399471268,2106299,0.02,-0.00,1.00,2.44,-4.76,-4.82
1777399471269,2106309,0.01,-0.01,1.00,2.50,-4.76,-4.70
1777399471269,2106319,0.02,-0.01,1.00,2.56,-4.76,-4.58
1777399471269,2106329,0.02,-0.01,1.00,2.44,-4.76,-4.82
1777399471269,2106339,0.02,-0.01,1.00,2.38,-4.82,-4.94
1777399471269,2106349,0.02,-0.01,1.00,2.50,-4.76,-4.76
1777399471269,2106359,0.02,-0.01,1.00,2.56,-4.76,-4.52
1777399471270,2106369,0.01,-0.01,1.00,2.62,-4.82,-4.52
1777399471270,2106379,0.01,-0.01,1.00,2.56,-4.70,-4.52
1777399471270,2106389,0.02,-0.01,1.00,2.44,-4.76,-4.88
1777399471270,2106399,0.02,-0.01,1.00,2.32,-4.70,-5.25
1777399471270,2106409,0.02,-0.01,1.00,2.44,-4.70,-4.64
1777399471270,2106429,0.02,-0.01,1.00,2.32,-4.70,-5.25
1777399471271,2106449,0.02,-0.01,1.00,2.50,-4.76,-4.82
1777399471271,2106469,0.02,-0.01,1.00,2.38,-4.64,-5.13
1777399471271,2106489,0.01,-0.00,1.00,2.56,-4.70,-4.58
1777399471271,2106499,0.02,-0.01,1.00,2.44,-4.70,-4.82
1777399471271,2106509,0.02,-0.01,1.00,2.26,-4.70,-5.19
1777399471271,2106519,0.02,-0.01,1.00,2.38,-4.70,-5.13
1777399471272,2106529,0.02,-0.01,1.00,2.44,-4.76,-5.00
1777399471272,2106539,0.02,-0.01,1.00,2.38,-4.76,-4.94
1777399471272,2106549,0.02,-0.01,1.00,2.38,-4.76,-4.94
1777399471272,2106559,0.02,-0.01,1.00,2.44,-4.76,-5.07
1777399471272,2106569,0.02,-0.01,1.00,2.44,-4.76,-5.07
1777399471272,2106579,0.02,-0.01,1.00,2.38,-4.70,-4.94
1777399471273,2106589,0.02,-0.01,1.00,2.44,-4.76,-4.94
1777399471273,2106599,0.02,-0.01,1.00,2.44,-4.76,-4.70
1777399471273,2106609,0.02,-0.01,1.00,2.56,-4.76,-4.58
1777399471273,2106619,0.02,-0.01,1.00,2.50,-4.76,-4.70
1777399471273,2106629,0.02,-0.00,1.00,2.38,-4.70,-5.07
1777399471273,2106639,0.02,-0.01,1.00,2.38,-4.76,-5.07
1777399471274,2106649,0.02,-0.01,1.00,2.44,-4.76,-5.00
1777399471274,2106659,0.02,-0.01,1.00,2.38,-4.70,-5.07
1777399471274,2106669,0.02,-0.01,1.00,2.44,-4.76,-5.07
1777399471274,2106679,0.02,-0.01,1.00,2.38,-4.76,-5.07
1777399471274,2106689,0.02,-0.01,1.00,2.38,-4.76,-5.00
1777399471274,2106699,0.02,-0.01,1.00,2.38,-4.76,-5.13
1777399471275,2106709,0.02,-0.01,1.00,2.32,-4.70,-5.13
1777399471275,2106719,0.02,-0.01,1.00,2.38,-4.70,-5.00
1777399471275,2106729,0.02,-0.01,1.00,2.50,-4.70,-4.82
1777399471275,2106739,0.02,-0.01,1.00,2.56,-4.76,-4.88
1777399471275,2106749,0.02,-0.01,1.00,2.50,-4.64,-4.82
1777399471275,2106769,0.02,-0.01,1.00,2.38,-4.70,-5.07
1777399471276,2106789,0.02,-0.01,1.00,2.56,-4.70,-4.88
1777399471276,2106809,0.02,-0.01,1.00,2.56,-4.70,-4.70
1777399471276,2106829,0.02,-0.00,1.00,2.62,-4.82,-4.64
1777399471276,2106839,0.02,-0.00,1.00,2.56,-4.76,-4.70
1777399471276,2106849,0.01,-0.01,1.00,2.56,-4.82,-4.64
1777399471277,2106859,0.01,-0.00,1.00,2.62,-4.76,-4.58
1777399471277,2106869,0.02,-0.00,1.00,2.50,-4.64,-4.76
1777399471277,2106879,0.02,-0.00,1.00,2.50,-4.70,-5.00
1777399471277,2106889,0.02,-0.00,1.00,2.38,-4.76,-4.88
1777399471277,2106899,0.02,-0.00,1.00,2.38,-4.82,-5.00
1777399471277,2106909,0.02,-0.01,1.00,2.38,-4.76,-5.00
1777399471278,2106919,0.02,-0.01,1.00,2.32,-4.70,-5.07
1777399471278,2106929,0.02,-0.00,1.00,2.44,-4.70,-4.88
1777399471278,2106939,0.02,-0.01,1.00,2.62,-4.76,-4.52
1777399471278,2106949,0.02,-0.00,1.00,2.56,-4.82,-4.64
1777399471278,2106959,0.02,-0.01,1.00,2.50,-4.82,-4.64
1777399471278,2106969,0.02,-0.01,1.00,2.38,-4.70,-5.00
1777399471278,2106979,0.02,-0.00,1.00,2.32,-4.76,-5.25
1777399471279,2106989,0.02,-0.00,1.00,2.38,-4.76,-5.25
1777399471279,2106999,0.02,-0.00,1.00,2.38,-4.82,-5.25
1777399471279,2107009,0.02,-0.01,1.00,2.44,-4.70,-5.00
1777399471279,2107019,0.02,-0.01,1.00,2.50,-4.76,-4.82
1777399471279,2107029,0.02,-0.01,1.00,2.50,-4.76,-4.70
1777399471279,2107039,0.02,-0.01,1.00,2.56,-4.82,-4.58
1777399471279,2107049,0.02,-0.01,1.00,2.56,-4.76,-4.46
1777399471280,2107059,0.02,-0.01,1.00,2.56,-4.76,-4.46
1777399471280,2107069,0.02,-0.01,1.00,2.56,-4.82,-4.52
1777399471280,2107079,0.02,-0.01,1.00,2.62,-4.88,-4.58
1777399471280,2107089,0.02,-0.01,1.00,2.50,-4.76,-4.82
1777399471280,2107099,0.02,-0.00,1.00,2.38,-4.70,-5.19
1777399471280,2107119,0.02,-0.01,1.00,2.44,-4.82,-4.82
1777399471280,2107139,0.02,-0.01,1.00,2.50,-4.82,-4.70
1777399471281,2107159,0.02,-0.01,1.00,2.44,-4.76,-5.00
1777399471281,2107179,0.02,-0.01,1.00,2.50,-4.70,-5.07
1777399471281,2107189,0.02,-0.00,1.00,2.50,-4.76,-4.70
1777399471281,2107199,0.02,-0.01,1.00,2.50,-4.76,-4.82
1777399471281,2107209,0.02,-0.01,1.00,2.32,-4.70,-5.07
1777399471281,2107219,0.02,-0.01,1.00,2.32,-4.70,-5.07
1777399471281,2107229,0.02,-0.01,1.00,2.32,-4.64,-5.13
1777399471282,2107239,0.02,-0.00,1.00,2.44,-4.82,-4.88
1777399471282,2107249,0.02,-0.00,1.00,2.56,-4.76,-4.64
1777399471282,2107259,0.02,-0.01,1.00,2.44,-4.76,-4.70
1777399471282,2107269,0.02,-0.01,1.00,2.50,-4.76,-4.82
1777399471282,2107279,0.01,-0.00,1.00,2.50,-4.76,-4.70
1777399471282,2107289,0.02,-0.00,1.01,2.50,-4.82,-4.58
1777399471282,2107299,0.02,-0.01,0.99,2.50,-4.64,-4.88
1777399471283,2107309,0.02,-0.00,1.01,2.38,-4.76,-5.25
1777399471283,2107319,0.01,-0.01,1.00,2.44,-4.76,-4.94
1777399471283,2107329,0.02,-0.01,1.00,2.50,-4.76,-4.64
1777399471283,2107339,0.02,-0.01,1.00,2.50,-4.76,-4.76
1777399471283,2107349,0.02,-0.01,1.00,2.38,-4.76,-4.94
1777399471283,2107359,0.02,-0.01,1.00,2.32,-4.82,-5.00
1777399471283,2107369,0.02,-0.01,1.00,2.32,-4.64,-5.13
1777399471284,2107379,0.02,-0.00,1.00,2.44,-4.82,-4.88
1777399471284,2107389,0.01,-0.00,1.00,2.56,-4.76,-4.58
1777399471284,2107399,0.02,-0.01,1.00,2.44,-4.76,-4.70
1777399471284,2107409,0.02,-0.01,1.00,2.50,-4.76,-4.82
1777399471284,2107419,0.02,-0.01,1.00,2.56,-4.82,-4.88
1777399471284,2107429,0.02,-0.00,1.00,2.50,-4.70,-4.82
1777399471284,2107439,0.02,-0.00,1.00,2.38,-4.70,-5.07
1777399471285,2107459,0.01,-0.01,1.02,2.62,-4.76,-4.64
1777399471285,2107479,0.02,-0.00,1.00,2.62,-4.76,-4.58
1777399471285,2107499,0.02,-0.01,1.00,2.56,-4.82,-4.64
1777399471285,2107519,0.02,-0.01,1.01,2.32,-4.76,-5.19
1777399471285,2107529,0.02,-0.01,1.00,2.44,-4.70,-4.88
1777399471285,2107539,0.01,-0.01,1.00,2.50,-4.76,-4.58
1777399471285,2107549,0.02,-0.01,1.00,2.44,-4.76,-4.82
1777399471285,2107559,0.02,-0.01,1.00,2.32,-4.70,-5.19
1777399471286,2107569,0.02,-0.01,1.00,2.38,-4.70,-5.13
1777399471286,2107579,0.01,-0.01,1.00,2.38,-4.70,-5.07
1777399471286,2107589,0.02,-0.01,1.00,2.38,-4.64,-4.88
1777399471286,2107599,0.02,-0.01,1.00,2.44,-4.70,-4.76
1777399471286,2107609,0.02,-0.00,1.00,2.50,-4.70,-4.76
1777399471286,2107619,0.01,-0.01,1.00,2.50,-4.76,-4.82
1777399471286,2107629,0.02,-0.01,1.00,2.38,-4.76,-4.88
1777399471287,2107639,0.02,-0.01,1.00,2.38,-4.76,-5.00
1777399471287,2107649,0.02,-0.01,1.00,2.32,-4.76,-5.13
1777399471287,2107659,0.02,-0.01,1.00,2.32,-4.76,-5.19
1777399471287,2107669,0.02,-0.01,1.00,2.38,-4.70,-5.07
1777399471287,2107679,0.02,-0.01,1.00,2.38,-4.76,-4.94
1777399471287,2107689,0.01,-0.00,1.00,2.50,-4.76,-4.76
1777399471287,2107699,0.02,-0.01,1.00,2.56,-4.82,-4.46
1777399471288,2107709,0.02,-0.01,1.00,2.50,-4.76,-4.70
1777399471288,2107719,0.02,-0.01,1.00,2.44,-4.70,-4.82
1777399471288,2107729,0.02,-0.01,1.00,2.44,-4.76,-4.76
1777399471288,2107739,0.02,-0.01,1.00,2.50,-4.70,-4.70
1777399471288,2107749,0.02,-0.01,1.00,2.44,-4.76,-4.70
1777399471288,2107759,0.02,-0.01,1.00,2.38,-4.82,-4.82
1777399471288,2107769,0.02,-0.00,1.00,2.44,-4.76,-4.88
1777399471289,2107779,0.02,-0.00,1.00,2.50,-4.82,-4.88
1777399471289,2107789,0.02,-0.01,1.00,2.44,-4.76,-4.64
1777399471289,2107809,0.02,-0.01,1.00,2.38,-4.76,-4.76
1777399471289,2107829,0.02,-0.01,1.00,2.38,-4.76,-4.88
1777399471289,2107849,0.02,-0.00,1.00,2.32,-4.94,-5.00
1777399471289,2107869,0.01,-0.00,1.00,2.44,-4.76,-4.52
1777399471289,2107879,0.02,-0.01,1.00,2.44,-4.76,-4.58
1777399471290,2107889,0.02,-0.01,1.00,2.38,-4.82,-4.76
1777399471290,2107899,0.02,-0.01,1.01,2.38,-4.82,-4.94
1777399471290,2107909,0.02,-0.01,1.00,2.38,-4.76,-5.07
1777399471290,2107919,0.02,-0.01,1.00,2.38,-4.76,-5.13
1777399471290,2107929,0.02,-0.00,1.00,2.44,-4.82,-5.00
1777399471290,2107939,0.02,-0.00,1.00,2.38,-4.70,-4.94
1777399471290,2107949,0.02,-0.01,1.00,2.44,-4.70,-4.88
1777399471290,2107959,0.02,-0.01,1.00,2.44,-4.70,-4.94
1777399471291,2107969,0.02,-0.00,1.00,2.44,-4.76,-5.00
1777399471291,2107979,0.01,-0.00,1.00,2.50,-4.76,-4.88
1777399471291,2107989,0.02,-0.01,1.00,2.50,-4.70,-4.70
1777399471291,2107999,-0.04,0.28,0.87,2.44,-4.52,-4.33
1777399471291,2108009,-0.13,0.52,1.05,7.26,2.44,26.31
1777399471291,2108019,-0.06,0.14,1.00,1.40,-6.04,72.94
1777399471291,2108029,0.15,0.28,1.05,3.30,-4.33,59.81
1777399471291,2108039,0.15,-0.35,0.98,2.26,-6.16,50.54
1777399471292,2108049,0.09,-0.55,0.99,2.87,-4.46,66.47
1777399471292,2108059,0.06,-0.28,1.00,3.11,-3.97,22.77
1777399471292,2108069,0.04,-0.08,1.00,2.99,-4.21,-7.51
1777399471292,2108079,0.17,0.05,1.01,3.05,-4.27,-15.93
1777399471292,2108089,0.27,0.23,0.99,1.34,-6.41,-15.81
1777399471292,2108099,0.22,0.13,1.01,1.71,-5.92,-10.44
1777399471292,2108109,0.10,-0.07,0.98,1.22,-6.84,-14.04
1777399471292,2108119,-0.08,-0.18,1.01,1.53,-6.16,-28.14
1777399471293,2108129,-0.16,-0.17,0.97,2.20,-5.25,-45.96
1777399471293,2108149,-0.34,0.07,1.03,2.44,-3.91,-71.41
1777399471293,2108169,-0.04,-0.02,1.00,2.62,-4.46,-41.32
1777399471293,2108189,0.05,-0.03,1.00,2.44,-4.52,-27.28
1777399471293,2108209,-0.13,-0.10,1.01,3.54,-3.60,-22.03
1777399471293,2108219,-0.10,-0.07,1.00,1.95,-4.82,-33.63
1777399471293,2108229,-0.13,-0.06,0.98,2.87,-4.15,-40.77
1777399471294,2108239,-0.15,-0.08,0.99,3.30,-3.72,-45.78
1777399471294,2108249,0.15,-0.04,0.98,3.30,-3.66,-46.94
1777399471294,2108259,-0.12,-0.17,1.02,3.42,-2.81,-29.91
1777399471294,2108269,0.03,0.01,1.00,3.48,-3.36,-30.27
1777399471294,2108279,0.11,0.23,1.00,2.87,-4.21,-31.98
1777399471294,2108289,0.17,0.14,1.00,2.32,-4.52,-6.77
1777399471294,2108299,0.16,0.11,1.00,2.32,-4.39,6.47
1777399471294,2108309,0.20,0.06,1.03,0.24,-3.05,7.08
1777399471294,2108319,0.24,0.09,1.07,-5.80,6.96,-2.20
1777399471295,2108329,0.09,0.09,1.10,-9.89,32.10,-11.23
1777399471295,2108339,0.07,0.16,1.16,-29.91,26.98,-15.56
1777399471295,2108349,0.33,0.01,1.13,-78.55,0.18,-23.74
1777399471295,2108359,0.11,-0.52,1.21,-123.78,-13.49,-23.19
1777399471295,2108369,-0.01,-0.44,1.24,-176.33,-1.40,-15.69
1777399471295,2108379,-0.05,-0.08,1.23,-238.83,26.73,7.93
1777399471295,2108389,-0.06,0.05,1.00,-286.68,53.10,35.89
1777399471296,2108399,-0.16,-0.14,0.95,-311.34,65.06,44.37
1777399471296,2108409,-0.19,-0.44,0.88,-303.65,63.35,33.75
1777399471296,2108419,-0.12,-0.61,0.86,-258.54,53.96,5.80
1777399471296,2108429,-0.14,-0.66,0.87,-206.24,53.28,-25.45
1777399471296,2108439,-0.22,-0.65,0.86,-198.67,60.79,-43.15
1777399471296,2108449,-0.36,-0.59,0.82,-239.69,77.70,-40.89
1777399471297,2108459,-0.38,-0.46,0.88,-296.14,106.57,-17.52
1777399471297,2108469,-0.23,-0.50,1.06,-338.87,142.88,25.70
1777399471297,2108479,-0.15,-0.67,1.07,-365.17,169.98,93.51
1777399471297,2108499,-0.23,-0.49,1.27,-303.59,204.71,146.30
1777399471297,2108519,-0.19,-0.83,0.77,-201.29,199.95,154.85
1777399471297,2108539,-0.36,-0.89,0.33,-211.49,219.24,134.83
1777399471297,2108559,-0.42,-1.09,0.30,-324.22,250.00,125.79
1777399471298,2108569,-0.34,-0.99,0.40,-357.54,270.20,120.85
1777399471298,2108579,-0.27,-0.83,0.40,-362.18,293.40,122.13
1777399471298,2108589,-0.33,-0.55,0.40,-349.37,320.31,131.90
1777399471298,2108599,-0.37,-0.40,0.35,-331.73,333.80,150.33
1777399471298,2108609,-0.38,-0.45,0.24,-318.60,329.41,163.39
1777399471298,2108619,-0.35,-0.41,0.08,-305.36,320.80,165.04
1777399471298,2108629,-0.32,-0.35,-0.01,-284.00,319.40,169.80
1777399471299,2108639,-0.35,-0.34,-0.03,-251.28,315.67,180.73
1777399471299,2108649,-0.58,-0.39,-0.28,-207.15,292.30,201.29
1777399471299,2108659,-0.90,-0.72,-0.71,-191.83,269.78,215.33
1777399471299,2108669,-1.04,-0.81,-0.79,-193.30,283.87,177.86
1777399471299,2108679,-0.98,-0.38,-0.76,-143.62,297.61,120.30
1777399471299,2108689,-0.83,-0.11,-0.63,-83.56,295.53,82.82
1777399471300,2108699,-0.58,0.00,-0.25,-20.69,268.37,58.78
1777399471300,2108709,-0.36,0.01,-0.38,74.71,227.60,47.36
1777399471300,2108719,-0.08,-0.04,-0.40,158.02,195.92,46.94
1777399471300,2108729,0.11,-0.11,-0.50,220.34,169.86,49.93
1777399471300,2108739,0.70,0.02,-2.24,179.50,113.16,34.97
1777399471300,2108749,0.21,-0.43,-1.29,-92.41,44.86,-14.77
1777399471300,2108759,0.05,-0.53,-0.68,-196.78,46.81,-13.00
1777399471300,2108769,-0.25,-0.15,-0.64,-158.33,39.79,-13.00
1777399471301,2108779,-0.36,-0.12,-0.91,-112.73,25.09,-6.84
1777399471301,2108789,-0.26,-0.15,-1.17,-88.75,17.40,3.23
1777399471301,2108799,-0.23,-0.20,-1.28,-80.51,26.12,7.75
1777399471301,2108809,-0.31,-0.24,-1.24,-78.61,42.79,10.13
1777399471301,2108819,-0.41,-0.25,-1.14,-73.00,55.85,10.93
1777399471301,2108829,-0.49,-0.29,-0.98,-70.43,60.67,7.63
1777399471301,2108849,-0.55,-0.33,-0.79,-59.51,34.36,-11.66
1777399471302,2108869,-0.42,-0.26,-0.94,-16.42,-2.08,-25.09
1777399471302,2108889,-0.32,-0.25,-0.92,0.24,-2.44,-19.23
1777399471302,2108899,-0.29,-0.25,-0.90,5.86,-2.75,-15.99
1777399471302,2108909,-0.25,-0.26,-0.93,11.05,-5.19,-13.12
1777399471302,2108919,-0.29,-0.27,-0.95,12.15,-5.00,-11.11
1777399471302,2108929,-0.32,-0.25,-0.94,8.36,-0.12,-8.36
1777399471302,2108939,-0.31,-0.28,-0.93,-4.94,10.68,-4.39
1777399471302,2108949,-0.32,-0.28,-0.90,-24.11,24.78,-2.20
1777399471303,2108959,-0.31,-0.28,-0.90,-39.49,36.32,-1.89
1777399471303,2108969,-0.34,-0.28,-0.82,-49.93,43.70,-1.46
1777399471303,2108979,-0.35,-0.29,-0.78,-53.96,43.52,-2.38
1777399471303,2108989,-0.38,-0.27,-0.81,-50.60,36.87,-5.62
1777399471303,2108999,-0.36,-0.26,-0.88,-49.74,30.52,-8.24
1777399471303,2109009,-0.34,-0.25,-0.91,-55.85,32.35,-9.09
1777399471303,2109019,-0.33,-0.24,-0.92,-63.84,39.37,-9.58
1777399471303,2109029,-0.36,-0.21,-0.88,-68.60,45.35,-10.62
1777399471304,2109039,-0.36,-0.20,-0.90,-65.00,45.59,-12.70
1777399471304,2109049,-0.30,-0.21,-0.92,-65.00,45.90,-14.16
1777399471304,2109059,-0.27,-0.21,-0.89,-74.65,51.94,-15.81
1777399471304,2109069,-0.25,-0.18,-0.87,-82.21,56.76,-18.49
1777399471304,2109079,-0.22,-0.13,-0.85,-86.30,56.58,-20.63
1777399471304,2109089,-0.17,-0.09,-0.84,-85.88,52.00,-20.51
1777399471304,2109099,-0.14,-0.05,-0.87,-80.26,45.84,-17.52
1777399471304,2109109,-0.15,-0.03,-0.89,-75.01,39.67,-12.70
1777399471305,2109119,-0.15,-0.01,-0.96,-70.07,33.57,-7.81
1777399471305,2109129,-0.14,-0.01,-1.02,-68.66,31.43,-3.60
1777399471305,2109139,-0.16,-0.01,-1.02,-73.61,36.44,-0.98
1777399471305,2109149,-0.16,0.00,-0.98,-76.42,40.65,-0.61
1777399471305,2109159,-0.15,0.00,-0.97,-72.88,36.50,-4.33
1777399471305,2109169,-0.12,0.04,-0.98,-62.87,24.84,-14.65
1777399471305,2109189,-0.10,0.10,-1.05,-24.29,-7.02,-16.42
1777399471306,2109209,-0.12,0.10,-1.07,-9.70,-8.48,-14.04
1777399471306,2109229,-0.12,0.07,-1.04,-2.69,-4.52,-9.89
1777399471306,2109249,-0.13,0.01,-1.00,0.43,-2.50,-6.47
1777399471306,2109259,-0.15,-0.02,-0.97,-5.19,1.28,-5.31
1777399471306,2109269,-0.17,-0.03,-0.93,-14.22,6.47,-6.10
1777399471306,2109279,-0.17,0.00,-0.92,-19.23,8.18,-8.73
1777399471306,2109289,-0.16,0.02,-0.92,-19.96,5.74,-10.62
1777399471306,2109299,-0.17,0.03,-0.93,-16.05,0.00,-11.60
1777399471307,2109309,-0.16,0.08,-0.98,-6.77,-7.87,-12.21
1777399471307,2109319,-0.13,0.09,-1.02,2.01,-13.00,-10.80
1777399471307,2109329,-0.12,0.09,-1.03,6.59,-12.27,-7.26
1777399471307,2109339,-0.12,0.09,-1.02,6.65,-7.81,-3.66
1777399471307,2109349,-0.12,0.08,-0.99,4.21,-3.30,-1.10
1777399471307,2109359,-0.13,0.05,-0.96,1.77,-1.59,-1.04
1777399471307,2109369,-0.14,0.04,-0.95,1.40,-3.85,-3.48
1777399471307,2109379,-0.15,0.04,-0.97,1.28,-7.14,-6.23
1777399471308,2109389,-0.17,0.05,-0.98,-0.43,-8.18,-8.24
1777399471308,2109399,-0.16,0.07,-0.98,-1.22,-7.93,-9.34
1777399471308,2109409,-0.14,0.06,-0.98,-0.12,-8.73,-9.28
1777399471308,2109419,-0.14,0.06,-0.99,2.26,-9.89,-7.87
1777399471308,2109429,-0.13,0.06,-0.99,5.55,-11.05,-6.41
1777399471308,2109439,-0.13,0.07,-0.99,9.34,-12.21,-4.82
1777399471308,2109449,-0.13,0.06,-1.00,11.17,-12.02,-2.75
1777399471308,2109459,-0.15,0.04,-0.99,9.40,-9.95,-1.16
1777399471308,2109469,-0.16,0.03,-0.97,6.59,-7.20,-1.22
1777399471309,2109479,-0.16,0.02,-0.95,4.39,-6.04,-2.08
1777399471309,2109489,-0.18,0.00,-0.95,2.26,-7.08,-3.60
1777399471309,2109499,-0.19,0.01,-0.97,0.55,-8.42,-6.29
1777399471309,2109509,-0.19,0.04,-0.99,-0.24,-8.91,-8.42
1777399471309,2109519,-0.18,0.06,-1.01,0.24,-8.12,-8.00
1777399471309,2109539,-0.16,0.05,-0.99,1.53,-2.32,-6.23
1777399471309,2109559,-0.14,0.04,-0.96,5.31,-7.02,-5.49
1777399471309,2109579,-0.17,0.04,-0.96,3.48,-6.29,-5.49
1777399471310,2109589,-0.17,0.03,-0.97,1.71,-5.25,-5.49
1777399471310,2109599,-0.18,0.03,-0.96,0.73,-5.25,-6.23
1777399471310,2109609,-0.17,0.04,-0.98,1.10,-6.16,-6.90
1777399471317,2109619,-0.17,0.04,-1.00,1.40,-6.71,-7.26
1777399471327,2109629,-0.17,0.06,-1.00,2.26,-6.53,-7.51
1777399471337,2109639,-0.16,0.07,-1.00,2.87,-5.43,-7.02
1777399471347,2109649,-0.15,0.07,-0.99,3.66,-4.39,-5.62
1777399471357,2109659,-0.15,0.05,-0.99,4.21,-3.78,-4.39
1777399471367,2109669,-0.16,0.04,-0.97,3.05,-2.08,-4.15
1777399471377,2109679,-0.15,0.05,-0.95,0.31,-0.85,-4.58
1777399471387,2109689,-0.15,0.05,-0.94,-0.67,-1.46,-5.13
1777399471397,2109699,-0.16,0.04,-0.96,0.06,-3.48,-5.55
1777399471407,2109709,-0.16,0.04,-0.97,0.31,-4.76,-5.74
1777399471417,2109719,-0.16,0.05,-0.97,0.61,-5.19,-6.10
1777399471427,2109729,-0.15,0.05,-0.98,1.59,-6.16,-6.29
1777399471437,2109739,-0.15,0.05,-0.99,3.17,-7.51,-6.16
1777399471447,2109749,-0.15,0.05,-0.99,4.03,-7.87,-5.80
1777399471457,2109759,-0.14,0.06,-1.00,5.25,-7.81,-5.37
1777399471467,2109769,-0.14,0.06,-1.00,5.80,-7.57,-4.94
1777399471477,2109779,-0.14,0.05,-0.99,5.55,-6.47,-4.15
1777399471487,2109789,-0.15,0.04,-0.99,5.92,-5.49,-3.11
1777399471497,2109799,-0.17,0.03,-0.97,5.55,-5.25,-2.20
1777399471507,2109809,-0.18,0.02,-0.96,4.27,-5.25,-2.62
1777399471517,2109819,-0.19,0.01,-0.96,2.32,-4.82,-4.09
1777399471527,2109829,-0.18,0.02,-0.96,0.85,-4.46,-5.98
1777399471537,2109839,-0.18,0.03,-0.97,0.67,-5.25,-7.39
1777399471547,2109849,-0.18,0.04,-0.98,0.92,-5.62,-7.75
1777399471557,2109859,-0.16,0.06,-0.98,1.53,-5.07,-7.39
1777399471577,2109879,-0.15,0.06,-0.98,4.33,-4.76,-5.13
1777399471597,2109899,-0.15,0.06,-0.97,4.39,-5.19,-4.46
1777399471617,2109919,-0.16,0.04,-0.98,5.74,-7.45,-3.97
1777399471639,2109939,-0.18,0.03,-0.98,2.69,-4.21,-4.88
1777399471654,2109949,-0.17,0.04,-0.97,1.34,-2.93,-5.49
1777399471657,2109959,-0.17,0.03,-0.96,0.85,-2.69,-5.55
1777399471667,2109969,-0.16,0.03,-0.97,1.53,-3.66,-5.74
1777399471681,2109979,-0.16,0.04,-0.97,1.89,-3.97,-5.86
1777399471687,2109989,-0.16,0.05,-0.97,1.65,-3.66,-5.43
1777399471697,2109999,-0.15,0.05,-0.97,2.56,-4.09,-5.19
1777399471709,2110009,-0.15,0.05,-0.98,3.05,-4.88,-5.25
1777399471717,2110019,-0.15,0.05,-0.98,3.54,-5.74,-5.43
1777399471727,2110029,-0.16,0.06,-0.97,5.19,-7.20,-5.80
1777399471737,2110039,-0.16,0.05,-0.98,7.08,-8.91,-6.41
1777399471747,2110049,-0.18,0.04,-0.98,7.75,-10.56,-7.69
1777399471757,2110059,-0.18,0.04,-0.98,7.63,-10.62,-9.46
1777399471767,2110069,-0.18,0.04,-0.98,6.65,-9.77,-10.50
1777399471777,2110079,-0.18,0.02,-0.99,5.68,-8.67,-10.62
1777399471787,2110089,-0.19,0.03,-0.99,4.58,-6.04,-10.44
1777399471797,2110099,-0.18,0.03,-0.99,2.69,-2.14,-9.89
1777399471807,2110109,-0.16,0.03,-0.96,0.12,1.28,-8.54
1777399471817,2110119,-0.15,0.01,-0.93,-1.83,2.32,-7.14
1777399471827,2110129,-0.14,0.02,-0.93,-2.08,0.61,-6.71
1777399471837,2110139,-0.14,0.04,-0.94,-1.83,-2.44,-6.90
1777399471847,2110149,-0.14,0.05,-0.96,-0.98,-5.31,-6.84
1777399471857,2110159,-0.16,0.06,-1.00,0.61,-7.32,-6.71
1777399471867,2110169,-0.16,0.06,-1.01,0.61,-6.53,-6.53
1777399471877,2110179,-0.16,0.06,-1.01,0.24,-4.27,-5.98
1777399471887,2110189,-0.16,0.05,-1.01,1.22,-3.48,-5.49
1777399471897,2110199,-0.17,0.05,-1.00,1.83,-2.87,-5.31
1777399471907,2110209,-0.16,0.04,-0.99,1.46,-1.40,-5.19
1777399471927,2110229,-0.14,0.03,-0.96,2.08,-3.36,-4.70
1777399471947,2110249,-0.15,0.05,-0.97,2.20,-5.25,-4.94
1777399471967,2110269,-0.16,0.05,-0.99,4.39,-6.71,-4.15
1777399471987,2110289,-0.16,0.04,-0.97,4.27,-5.62,-4.46
1777399471997,2110299,-0.16,0.04,-0.97,4.88,-6.65,-4.88
1777399472007,2110309,-0.17,0.03,-0.98,3.72,-6.59,-5.31
1777399472017,2110319,-0.18,0.04,-0.98,1.83,-5.43,-5.80
1777399472027,2110329,-0.17,0.04,-0.98,0.37,-3.72,-5.86
1777399472037,2110339,-0.16,0.04,-0.97,-0.49,-2.26,-4.94
1777399472047,2110349,-0.16,0.03,-0.96,-0.55,-2.14,-4.33
1777399472057,2110359,-0.16,0.04,-0.96,0.79,-3.48,-4.33
1777399472067,2110369,-0.15,0.05,-0.98,2.56,-5.37,-4.39
1777399472077,2110379,-0.15,0.05,-0.98,3.91,-6.59,-4.27
1777399472087,2110389,-0.15,0.05,-0.99,5.37,-7.75,-4.52
1777399472097,2110399,-0.15,0.06,-1.00,6.47,-8.61,-4.70
1777399472107,2110409,-0.15,0.05,-1.00,7.08,-8.54,-4.70
1777399472117,2110419,-0.17,0.04,-0.99,6.59,-7.51,-4.82
1777399472127,2110429,-0.18,0.03,-0.98,4.70,-5.25,-5.25
1777399472137,2110439,-0.18,0.03,-0.97,2.01,-2.62,-5.43
1777399472147,2110449,-0.17,0.02,-0.96,0.37,-1.04,-5.00
1777399472157,2110459,-0.17,0.01,-0.96,-0.61,-0.55,-4.76
1777399472167,2110469,-0.18,0.02,-0.96,-1.46,-0.24,-4.70
1777399472177,2110479,-0.17,0.03,-0.97,-2.01,-0.12,-4.94
1777399472187,2110489,-0.16,0.04,-0.97,-1.46,-0.92,-5.25
1777399472197,2110499,-0.15,0.05,-0.97,0.12,-2.38,-5.25
1777399472207,2110509,-0.14,0.05,-0.97,2.14,-4.58,-5.31
1777399472217,2110519,-0.14,0.05,-0.98,3.91,-6.71,-5.62
1777399472227,2110529,-0.15,0.06,-1.00,4.27,-7.14,-5.74
1777399472237,2110539,-0.16,0.06,-1.00,3.30,-5.55,-5.55
1777399472247,2110549,-0.16,0.05,-1.00,2.44,-3.72,-5.62
