host_time_ms,arduino_time_ms,ax,ay,az,gx,gy,gz
1777056658546,557365,-0.28,0.04,2.35,299.50,183.41,43.70
1777056658546,557375,-0.13,-0.27,1.98,329.65,225.10,48.03
1777056658546,557385,0.06,-0.46,1.57,333.13,242.25,3.54
1777056658546,557395,0.14,-0.54,1.48,302.49,240.48,-81.48
1777056658547,557405,0.17,-0.70,1.01,255.49,220.58,-146.06
1777056658547,557415,0.45,-0.98,0.92,202.03,217.90,-146.18
1777056658547,557425,0.68,-1.17,0.27,152.65,160.95,-107.42
1777056658548,557435,1.02,-1.15,-0.41,60.61,93.93,-37.41
1777056658548,557445,1.17,-0.73,-0.71,-101.56,24.23,-3.36
1777056658548,557455,1.06,-0.37,-0.59,-287.41,-88.13,-21.79
1777056658548,557465,0.73,0.11,-0.06,-406.07,-179.81,-58.04
1777056658549,557475,0.39,0.49,0.67,-452.88,-233.64,-86.18
1777056658549,557485,-0.31,0.91,1.34,-429.32,-258.06,-108.83
1777056658550,557495,-1.04,1.14,1.85,-339.11,-230.71,-121.46
1777056658550,557505,-1.44,1.29,2.08,-197.08,-158.81,-112.73
1777056658550,557515,-1.65,1.28,2.15,-58.90,-57.56,-90.52
1777056658551,557525,-1.46,1.01,2.17,51.45,50.60,-59.69
1777056658551,557535,-1.07,0.72,2.12,139.22,140.99,-26.18
1777056658551,557545,-0.85,0.51,2.15,200.87,207.34,-3.91
1777056658552,557555,-0.73,0.29,2.27,241.82,260.86,22.40
1777056658552,557565,-0.58,0.11,2.23,273.74,297.49,54.81
1777056658552,557575,-0.24,-0.18,2.18,294.31,321.35,83.56
1777056658553,557585,-0.12,-0.20,1.77,316.53,333.98,89.48
1777056658553,557595,-0.05,-0.22,1.35,299.01,330.32,60.00
1777056658553,557605,0.03,-0.35,1.01,241.03,323.79,6.16
1777056658553,557615,0.18,-0.50,0.55,166.50,308.17,-41.50
1777056658554,557625,0.06,-0.47,0.64,84.23,289.37,-72.75
1777056658554,557635,0.24,-0.32,0.18,20.26,212.89,-90.21
1777056658554,557645,0.09,-0.14,-0.19,-29.54,147.22,-94.48
1777056658554,557655,0.08,-0.06,-0.33,-81.60,84.78,-86.12
1777056658555,557665,0.01,-0.05,-0.48,-122.56,11.17,-69.15
1777056658555,557675,0.01,-0.11,-0.52,-148.56,-56.82,-54.63
1777056658555,557685,-0.07,-0.05,-0.24,-166.56,-117.07,-47.67
1777056658556,557695,0.14,-0.12,-0.60,-179.81,-195.62,-43.46
1777056658556,557705,-0.00,0.08,-0.11,-192.32,-221.01,-46.26
1777056658556,557715,-0.01,0.02,0.10,-210.14,-273.74,-42.48
1777056658556,557725,-0.04,0.04,0.46,-198.67,-304.02,-36.19
1777056658557,557735,-0.15,-0.00,0.73,-187.93,-318.18,-26.37
1777056658557,557745,-0.17,-0.14,1.01,-185.61,-325.68,-13.24
1777056658557,557755,-0.33,-0.25,1.24,-179.63,-311.83,6.16
1777056658557,557765,-0.39,-0.36,1.44,-170.90,-291.02,28.75
1777056658558,557775,-0.42,-0.40,1.52,-158.39,-268.01,48.52
1777056658558,557785,-0.47,-0.35,1.56,-146.36,-240.54,60.85
1777056658558,557795,-0.52,-0.22,1.59,-136.84,-211.18,62.44
1777056658558,557805,-0.60,-0.06,1.54,-122.38,-180.54,47.42
1777056658559,557815,-0.61,0.09,1.39,-98.69,-153.32,18.43
1777056658559,557825,-0.55,0.20,1.28,-77.09,-127.20,-13.24
1777056658559,557835,-0.51,0.19,1.20,-59.27,-110.41,-38.33
1777056658559,557845,-0.47,0.08,1.07,-32.35,-104.55,-47.91
1777056658559,557855,-0.36,0.00,0.95,4.76,-96.37,-40.65
1777056658560,557865,-0.25,-0.11,0.84,36.32,-81.05,-23.99
1777056658560,557875,-0.15,-0.25,0.76,54.99,-57.86,-5.43
1777056658560,557885,-0.09,-0.34,0.76,58.04,-30.82,18.62
1777056658560,557895,-0.09,-0.39,0.82,42.18,-9.58,54.57
1777056658560,557905,-0.02,-0.55,0.95,17.94,1.22,97.96
1777056658561,557915,-0.01,-0.49,0.92,13.43,8.12,129.58
1777056658561,557925,-0.01,-0.32,0.83,16.72,13.43,139.16
1777056658561,557935,-0.03,-0.09,0.72,13.49,19.04,125.24
1777056658561,557945,-0.02,0.02,0.69,-6.35,19.29,102.78
1777056658561,557955,-0.03,0.06,0.71,-23.01,9.46,86.12
1777056658562,557965,-0.02,0.04,0.71,-26.00,-7.93,82.76
1777056658562,557975,-0.04,-0.05,0.77,-21.55,-19.84,90.09
1777056658562,557985,-0.07,-0.13,0.81,-16.05,-28.93,96.92
1777056658562,557995,-0.10,-0.18,0.80,-27.40,-32.23,103.52
1777056658562,558005,-0.10,-0.28,0.79,-55.66,-17.76,116.27
1777056658563,558015,-0.07,-0.46,1.04,-89.66,8.24,137.15
1777056658563,558025,0.05,-1.07,1.36,-115.66,11.47,139.77
1777056658563,558035,-0.06,-0.47,1.23,-105.77,-21.24,80.44
1777056658563,558045,-0.18,0.08,1.07,-79.28,-28.69,86.61
1777056658564,558055,-0.10,0.17,0.97,-44.37,-28.14,105.71
1777056658564,558065,-0.03,0.23,0.84,-24.41,-42.18,93.44
1777056658564,558075,-0.07,0.19,0.79,-16.17,-46.69,87.71
1777056658564,558085,-0.10,0.08,0.80,-13.98,-43.76,94.42
1777056658564,558095,-0.13,0.03,0.87,-21.67,-32.17,104.13
1777056658565,558105,-0.22,-0.02,0.91,-41.99,-13.98,118.23
1777056658565,558115,-0.23,-0.14,1.05,-78.00,1.83,132.69
1777056658565,558125,-0.16,-0.26,1.18,-99.30,14.83,141.30
1777056658565,558135,0.01,-0.37,1.29,-82.95,27.53,136.54
1777056658565,558145,0.01,-0.11,1.16,-34.91,31.19,111.33
1777056658565,558155,0.10,0.04,1.08,9.22,33.94,95.09
1777056658566,558165,0.15,0.11,0.99,43.70,28.38,83.13
1777056658566,558175,0.17,0.07,0.78,73.24,8.36,73.24
1777056658566,558185,0.19,-0.07,0.70,78.55,-15.38,55.73
1777056658566,558195,0.25,-0.12,0.77,51.09,-35.83,27.22
1777056658566,558205,0.30,-0.13,0.92,14.53,-50.35,1.65
1777056658567,558215,0.19,-0.11,1.06,-17.09,-51.15,-15.99
1777056658567,558225,0.03,-0.13,1.29,-39.25,-37.17,-23.56
1777056658567,558235,-0.15,-0.17,1.54,-59.69,-16.42,-29.91
1777056658567,558245,-0.28,-0.19,1.67,-71.59,4.94,-27.34
1777056658567,558255,-0.33,-0.20,1.70,-67.20,24.96,-15.69
1777056658568,558265,-0.32,-0.15,1.62,-47.55,30.03,-7.20
1777056658568,558275,-0.31,-0.07,1.43,-9.95,24.11,0.98
1777056658568,558285,-0.21,0.05,1.20,37.11,10.19,4.58
1777056658568,558295,-0.07,0.05,1.04,72.45,-1.89,6.10
1777056658568,558305,0.06,-0.11,0.89,95.76,-5.68,12.02
1777056658568,558315,0.14,-0.24,0.77,110.96,-3.36,12.51
1777056658569,558325,0.16,-0.23,0.76,106.81,3.36,9.09
1777056658569,558335,0.11,-0.25,0.78,85.14,8.48,12.57
1777056658569,558345,0.01,-0.23,0.78,52.80,8.85,8.36
1777056658569,558355,-0.07,-0.17,0.91,9.09,4.27,-2.44
1777056658569,558365,-0.22,-0.16,1.18,-29.72,-8.24,-10.62
1777056658569,558375,-1.01,-0.54,1.82,37.41,-69.27,9.28
1777056658570,558385,-0.09,-0.00,0.96,217.16,-188.42,51.57
1777056658570,558395,-0.05,0.37,1.20,231.87,-182.92,17.58
1777056658570,558405,-0.04,0.23,1.39,169.43,-203.19,5.19
1777056658570,558415,0.05,0.08,0.99,110.96,-128.11,2.69
1777056658570,558425,0.23,0.02,0.79,44.43,-60.91,-2.44
1777056658571,558435,0.06,0.10,0.91,-4.21,2.81,-4.88
1777056658571,558445,0.03,-0.01,1.05,-18.31,20.39,-6.77
1777056658571,558455,-0.03,-0.12,1.03,-20.08,24.90,-5.68
1777056658571,558465,-0.03,0.01,1.02,-15.93,8.97,-2.14
1777056658571,558475,-0.05,0.07,1.03,-11.17,-5.19,-3.36
1777056658571,558485,-0.04,0.06,1.01,-5.13,-12.21,-0.61
1777056658572,558495,-0.00,0.03,1.00,-1.59,-15.69,0.00
1777056658572,558505,0.00,0.02,1.00,-0.12,-14.65,0.85
1777056658572,558515,0.02,0.01,1.00,0.85,-13.73,1.53
1777056658572,558525,0.03,0.02,1.00,1.65,-11.78,1.71
1777056658572,558535,0.03,0.01,1.00,2.50,-8.24,0.79
1777056658572,558545,0.03,0.01,1.00,2.99,-5.43,-0.73
1777056658573,558555,0.01,0.02,1.00,3.36,-3.66,-2.20
1777056658573,558565,0.01,0.01,1.00,3.36,-3.91,-3.30
1777056658573,558575,0.01,0.02,1.00,3.36,-5.55,-3.78
1777056658573,558585,-0.00,0.04,1.00,3.17,-6.29,-4.09
1777056658573,558595,-0.03,0.05,1.01,2.08,-6.90,-4.33
1777056658573,558605,0.04,-0.01,1.00,2.44,-8.54,-3.72
1777056658573,558615,0.02,0.00,1.00,3.36,-7.32,-3.23
1777056658574,558625,0.06,-0.01,1.00,3.91,-6.04,-3.54
1777056658574,558635,0.03,0.04,1.00,5.55,-1.83,-7.39
1777056658574,558645,-0.00,-0.00,1.00,3.85,-1.59,-11.72
1777056658574,558655,-0.01,0.01,1.01,3.66,-2.99,-7.51
1777056658574,558665,0.01,0.01,1.00,3.60,-5.68,-4.52
1777056658575,558675,0.02,0.01,1.00,3.54,-6.10,-4.21
1777056658575,558685,0.01,0.02,1.00,3.48,-5.43,-4.15
1777056658575,558695,0.01,0.01,1.00,3.42,-5.00,-4.52
1777056658575,558705,0.01,0.01,1.00,3.11,-5.07,-4.39
1777056658575,558715,0.01,0.01,1.00,2.75,-5.00,-3.97
1777056658575,558725,0.02,0.01,1.00,2.87,-4.82,-3.91
1777056658575,558735,0.01,0.01,1.00,3.30,-5.00,-3.85
1777056658576,558745,0.01,0.01,1.00,3.17,-5.25,-3.85
1777056658576,558755,0.01,0.01,1.00,3.05,-5.31,-3.85
1777056658576,558765,0.01,0.01,1.00,3.05,-5.00,-3.85
1777056658576,558775,0.01,0.01,1.00,3.23,-4.94,-3.91
1777056658576,558785,0.01,0.01,1.00,3.30,-4.94,-3.78
1777056658576,558795,0.01,0.01,1.00,3.48,-5.19,-3.85
1777056658577,558805,0.01,0.01,1.00,3.23,-5.00,-3.78
1777056658577,558815,0.01,0.01,1.00,3.11,-4.82,-3.85
1777056658577,558825,0.01,0.01,1.00,3.30,-5.00,-3.85
1777056658577,558835,0.01,0.02,1.00,3.42,-5.19,-3.85
1777056658577,558845,0.02,0.01,1.00,3.23,-5.07,-3.85
1777056658577,558855,0.02,0.02,1.00,3.60,-4.70,-3.78
1777056658578,558865,0.01,0.03,1.00,3.54,-3.97,-3.72
1777056658578,558875,0.02,0.01,1.00,2.08,-5.92,-3.72
1777056658578,558885,0.01,0.01,1.00,2.93,-5.80,-3.85
1777056658578,558895,0.02,0.01,1.00,2.93,-5.62,-3.85
1777056658578,558905,0.01,0.01,1.00,3.30,-4.64,-3.78
1777056658578,558915,0.01,0.02,1.00,3.54,-4.82,-3.78
1777056658578,558925,0.01,0.01,1.00,3.36,-5.19,-3.72
1777056658579,558935,0.01,0.01,1.00,3.05,-5.13,-3.78
1777056658579,558955,0.01,0.01,1.00,2.87,-4.76,-3.91
1777056658579,558975,0.01,0.01,1.00,3.42,-5.19,-3.85
1777056658579,558995,0.01,0.01,1.00,3.30,-4.88,-3.85
1777056658579,559015,0.01,0.01,1.00,3.05,-5.13,-3.78
1777056658579,559035,0.01,0.01,1.00,3.17,-5.07,-3.85
1777056658579,559055,0.01,0.01,1.00,2.99,-4.88,-3.85
1777056658580,559075,0.01,0.01,1.00,3.11,-4.82,-3.78
1777056658580,559095,0.02,0.01,1.00,3.42,-4.82,-3.72
1777056658580,559115,0.01,0.01,1.00,3.17,-4.82,-3.78
1777056658580,559135,0.01,0.01,1.00,3.30,-5.13,-3.85
1777056658580,559155,0.02,0.01,1.00,3.42,-4.94,-3.78
1777056658580,559175,0.02,0.01,1.00,3.42,-4.94,-3.78
1777056658581,559195,0.01,0.01,1.00,3.30,-5.07,-3.78
1777056658581,559215,0.02,0.01,1.00,3.23,-4.88,-3.78
1777056658581,559235,0.01,0.01,1.00,3.17,-5.00,-3.78
1777056658581,559255,0.01,0.01,1.00,3.30,-5.00,-3.85
1777056658581,559275,0.01,0.01,1.00,3.23,-5.07,-3.78
1777056658581,559295,0.01,0.01,1.00,3.23,-5.07,-3.78
1777056658581,559315,0.01,0.01,1.00,3.36,-4.82,-3.78
1777056658582,559335,0.01,0.01,1.00,3.23,-4.94,-3.85
1777056658582,559355,0.01,0.01,1.00,3.36,-4.88,-3.72
1777056658582,559375,0.01,0.01,1.00,3.36,-5.00,-3.78
1777056658582,559395,0.01,0.01,1.00,3.30,-5.00,-3.85
1777056658582,559415,0.01,0.01,1.00,3.11,-4.88,-3.78
1777056658582,559425,0.01,0.01,1.00,2.93,-4.82,-3.85
1777056658582,559435,0.01,0.01,1.00,3.11,-4.82,-3.85
1777056658583,559445,0.01,0.01,1.00,3.17,-4.82,-3.85
1777056658583,559455,0.01,0.01,1.00,2.99,-4.94,-3.91
1777056658583,559465,0.01,0.01,1.00,2.93,-4.88,-3.85
1777056658583,559475,0.01,0.01,1.00,2.93,-4.94,-3.85
1777056658583,559485,0.01,0.01,1.00,3.11,-4.94,-3.97
1777056658583,559495,0.01,0.01,1.00,3.36,-4.88,-3.85
1777056658584,559505,0.01,0.01,1.00,3.42,-5.00,-3.72
1777056658584,559515,0.01,0.01,1.00,3.36,-5.00,-3.78
1777056658584,559525,0.01,0.01,1.00,3.23,-5.00,-3.78
1777056658584,559535,0.02,0.01,1.00,3.17,-5.00,-3.78
1777056658584,559545,0.01,0.01,1.00,3.30,-4.94,-3.78
1777056658584,559555,0.01,0.01,1.00,3.42,-4.94,-3.85
1777056658584,559565,0.01,0.02,1.00,3.42,-5.00,-3.78
1777056658584,559575,0.01,0.01,1.00,3.23,-4.88,-3.85
1777056658585,559585,0.01,0.01,1.00,3.17,-5.00,-3.85
1777056658585,559595,0.01,0.01,1.00,3.05,-4.94,-3.85
1777056658585,559605,0.01,0.01,1.00,3.11,-4.94,-3.85
1777056658585,559615,0.01,0.02,1.00,3.17,-4.88,-3.85
1777056658585,559625,0.01,0.01,1.00,3.23,-4.82,-3.78
1777056658585,559635,0.01,0.01,1.00,2.99,-4.76,-3.85
1777056658585,559645,0.01,0.01,1.00,2.93,-4.82,-3.85
1777056658586,559655,0.01,0.01,1.00,3.05,-5.00,-3.78
1777056658586,559665,0.01,0.01,1.00,3.30,-4.94,-3.78
1777056658586,559675,0.01,0.01,1.00,3.30,-4.94,-3.85
1777056658586,559685,0.02,0.01,1.00,3.30,-5.07,-3.85
1777056658586,559695,0.02,0.01,1.00,3.23,-5.00,-3.78
1777056658586,559705,0.01,0.01,1.00,3.17,-5.07,-3.78
1777056658586,559715,0.01,0.01,1.00,3.17,-5.07,-3.85
1777056658586,559725,0.01,0.01,1.00,3.11,-4.88,-3.85
1777056658587,559735,0.01,0.01,1.00,3.05,-4.76,-3.85
1777056658587,559745,0.01,0.01,1.00,2.99,-4.88,-3.91
1777056658587,559755,0.01,0.01,1.00,2.99,-4.88,-3.91
1777056658587,559765,0.01,0.01,1.00,2.81,-4.82,-3.97
1777056658587,559775,0.02,0.01,1.00,3.11,-4.88,-3.85
1777056658587,559785,0.01,0.01,1.00,3.30,-5.00,-3.85
1777056658587,559795,0.01,0.01,1.00,3.11,-5.00,-3.85
1777056658588,559805,0.01,0.01,1.00,2.81,-4.82,-3.85
1777056658588,559815,0.01,0.01,1.00,3.11,-4.88,-3.91
1777056658588,559825,0.01,0.01,1.00,3.30,-5.00,-3.85
1777056658588,559835,0.01,0.01,1.00,3.17,-5.13,-3.78
1777056658588,559845,0.02,0.01,1.00,3.23,-5.25,-3.91
1777056658588,559855,0.01,0.01,1.00,3.23,-5.00,-3.91
1777056658588,559865,0.01,0.01,1.00,3.36,-5.00,-3.85
1777056658589,559875,0.01,0.01,1.00,3.30,-5.31,-3.85
1777056658589,559885,0.02,0.01,1.00,3.17,-5.62,-3.78
1777056658589,559895,0.02,0.01,1.00,3.23,-5.43,-3.72
1777056658589,559905,0.02,0.01,1.00,3.23,-5.07,-3.85
1777056658589,559915,0.01,0.01,1.00,3.17,-4.88,-3.85
1777056658589,559925,0.01,0.01,1.01,3.11,-4.82,-3.85
1777056658589,559935,0.01,0.01,1.00,3.05,-4.88,-3.85
1777056658590,559945,0.01,0.01,1.00,2.93,-4.82,-3.85
1777056658590,559955,0.01,0.01,1.00,3.11,-5.00,-3.85
1777056658590,559965,0.01,0.01,1.00,3.17,-4.88,-3.91
1777056658590,559975,0.01,0.01,1.00,3.05,-4.94,-3.91
1777056658590,559985,0.01,0.01,1.00,3.05,-4.88,-3.85
1777056658590,559995,0.01,0.01,1.00,3.17,-5.00,-3.85
1777056658590,560005,0.01,0.01,1.00,3.11,-4.88,-3.85
1777056658590,560015,0.01,0.01,1.00,2.99,-4.88,-3.91
1777056658591,560025,0.01,0.01,1.00,2.93,-4.88,-3.91
1777056658591,560035,0.01,0.01,1.00,3.11,-4.94,-3.85
1777056658591,560045,0.01,0.01,1.00,3.17,-4.82,-3.85
1777056658591,560055,0.01,0.01,1.00,3.11,-4.94,-3.78
1777056658591,560065,0.01,0.01,1.00,2.87,-4.82,-3.85
1777056658591,560075,0.02,0.01,1.00,3.17,-4.88,-3.85
1777056658591,560085,0.02,0.01,1.00,3.54,-5.13,-3.78
1777056658592,560095,0.01,0.01,1.01,3.30,-4.94,-3.78
1777056658592,560105,0.01,0.01,1.00,3.11,-4.94,-3.91
1777056658592,560115,0.01,0.01,1.00,3.17,-4.94,-3.85
1777056658592,560125,0.01,0.01,1.00,3.36,-4.94,-3.85
1777056658592,560135,0.01,0.01,1.00,3.23,-5.00,-3.85
1777056658592,560145,0.01,0.01,1.00,3.11,-4.94,-3.85
1777056658592,560155,0.01,0.01,1.00,2.93,-4.94,-3.85
1777056658592,560165,0.01,0.01,1.00,2.87,-4.88,-3.85
1777056658593,560175,0.01,0.01,1.00,3.11,-5.00,-3.78
1777056658593,560185,0.01,0.01,1.00,3.36,-4.94,-3.78
1777056658593,560195,0.01,0.01,1.00,3.36,-4.94,-3.72
1777056658593,560205,0.01,0.01,1.00,3.60,-5.07,-3.78
1777056658593,560215,0.02,0.01,1.00,3.42,-4.94,-3.78
1777056658593,560225,0.01,0.01,1.00,3.36,-4.94,-3.85
1777056658593,560235,0.01,0.01,1.00,3.11,-4.94,-3.91
1777056658593,560245,0.01,0.01,1.00,2.93,-4.88,-3.85
1777056658594,560255,0.01,0.01,1.00,3.05,-4.88,-3.85
1777056658594,560265,0.01,0.01,1.00,3.36,-4.88,-3.78
1777056658594,560275,0.01,0.01,1.00,3.23,-4.88,-3.72
1777056658594,560285,0.01,0.01,1.00,3.23,-4.94,-3.78
1777056658594,560295,0.01,0.02,1.00,3.11,-4.94,-3.85
1777056658594,560305,0.01,0.01,1.00,3.30,-4.94,-3.91
1777056658594,560315,0.01,0.01,1.00,3.17,-4.94,-3.78
1777056658595,560325,0.01,0.01,1.00,3.11,-4.82,-3.78
1777056658595,560335,0.01,0.01,1.00,2.93,-4.82,-3.91
1777056658595,560345,0.01,0.01,1.00,2.81,-4.76,-3.91
1777056658595,560355,0.01,0.01,1.00,2.93,-4.94,-3.85
1777056658595,560365,0.01,0.01,1.00,3.05,-4.82,-3.85
1777056658595,560375,0.02,0.01,1.00,3.23,-4.94,-3.78
1777056658595,560385,0.01,0.01,1.00,3.60,-5.13,-3.78
1777056658595,560395,0.01,0.01,1.00,3.36,-5.00,-3.85
1777056658596,560405,0.01,0.01,1.00,3.23,-5.00,-3.78
1777056658596,560415,0.02,0.01,1.00,3.23,-5.00,-3.78
1777056658596,560425,0.01,0.01,1.00,3.23,-4.94,-3.78
1777056658596,560435,0.01,0.01,1.00,2.99,-4.82,-3.85
1777056658596,560445,0.01,0.01,1.00,2.93,-4.82,-3.91
1777056658596,560455,0.01,0.01,1.00,2.87,-4.76,-3.91
1777056658596,560465,0.01,0.01,1.01,2.87,-4.82,-3.97
1777056658596,560475,0.02,0.01,1.00,3.17,-4.88,-3.85
1777056658597,560485,0.01,0.01,1.00,3.48,-5.07,-3.78
1777056658597,560495,0.01,0.01,1.00,3.54,-5.00,-3.85
1777056658597,560505,0.02,0.02,1.00,3.60,-5.07,-3.85
1777056658597,560515,0.01,0.01,1.01,3.30,-4.94,-3.72
1777056658597,560525,0.01,0.01,1.01,3.17,-4.88,-3.85
1777056658598,560535,0.01,0.01,1.00,3.11,-4.94,-3.78
1777056658598,560545,0.01,0.01,1.00,3.05,-4.94,-3.78
1777056658598,560555,0.01,0.01,1.00,3.05,-4.82,-3.85
1777056658598,560565,0.01,0.01,1.00,3.17,-4.94,-3.78
1777056658598,560575,0.01,0.01,1.00,2.99,-5.00,-3.85
1777056658598,560585,0.02,0.02,1.00,2.75,-4.70,-3.78
1777056658598,560595,0.01,0.01,1.01,2.69,-4.21,-3.72
1777056658598,560605,0.01,0.01,1.00,2.81,-4.70,-3.91
1777056658599,560615,0.01,0.01,1.00,3.05,-5.07,-3.91
1777056658599,560625,0.02,0.02,1.00,3.36,-5.19,-3.78
1777056658599,560635,0.01,0.02,1.01,3.42,-5.00,-3.78
1777056658599,560645,0.02,0.01,1.00,3.36,-5.07,-3.85
1777056658599,560655,0.01,0.01,1.00,3.23,-5.13,-3.85
1777056658599,560665,0.01,0.01,1.00,2.99,-5.19,-3.97
1777056658599,560675,0.01,0.01,1.00,3.11,-5.13,-3.91
1777056658599,560685,0.01,0.01,1.00,3.36,-4.94,-3.85
1777056658600,560695,0.01,0.02,1.00,3.30,-4.88,-3.85
1777056658600,560705,0.01,0.01,1.00,3.17,-4.94,-3.85
1777056658600,560715,0.01,0.01,1.00,3.11,-5.07,-3.91
1777056658600,560725,0.01,0.01,1.00,2.81,-4.88,-3.85
1777056658600,560735,0.01,0.01,1.00,2.93,-4.88,-3.85
1777056658600,560745,0.01,0.01,1.00,3.23,-5.00,-3.85
1777056658600,560755,0.09,-0.04,1.03,3.85,-6.29,-4.94
1777056658600,560765,0.01,0.02,0.99,4.21,-10.74,-19.29
1777056658600,560775,-0.00,0.02,1.00,3.85,-7.20,-20.75
1777056658601,560785,0.02,0.02,1.00,3.42,-5.86,-14.28
1777056658601,560795,0.02,0.02,1.00,3.11,-3.66,-13.18
1777056658601,560805,0.01,0.03,1.00,3.05,-2.69,-11.90
1777056658601,560815,0.00,0.01,1.01,2.87,-2.56,-9.40
1777056658601,560825,0.06,-0.02,1.01,2.99,-4.27,-10.80
1777056658601,560835,0.01,0.00,1.00,3.30,-6.53,-19.90
1777056658601,560845,-0.00,0.03,1.00,3.30,-6.71,-21.36
1777056658601,560855,-0.01,0.03,1.01,3.11,-5.92,-17.46
1777056658602,560865,-0.01,0.03,1.00,3.30,-6.41,-13.67
1777056658602,560875,-0.00,0.04,1.00,3.54,-7.02,-8.54
1777056658602,560885,0.01,0.02,1.00,3.42,-7.32,-4.15
1777056658602,560895,0.03,0.02,0.98,3.23,-6.84,-2.93
1777056658602,560905,0.02,0.01,1.00,2.32,-2.38,-2.14
1777056658602,560915,0.02,0.01,1.00,2.32,0.12,-1.65
1777056658602,560925,0.01,0.01,1.02,2.93,-0.24,-1.46
1777056658602,560935,0.01,0.01,1.01,3.17,-4.09,-3.17
1777056658603,560945,0.01,0.01,1.00,3.05,-5.86,-3.66
1777056658603,560955,0.02,0.01,1.00,3.05,-6.04,-3.66
1777056658603,560965,0.02,0.01,1.00,3.17,-4.46,-3.66
1777056658603,560975,0.01,0.01,1.00,3.23,-4.09,-3.72
1777056658603,560985,0.01,0.01,1.00,3.48,-4.76,-3.78
1777056658603,560995,0.02,0.01,1.00,3.23,-5.31,-3.78
1777056658603,561005,0.02,0.01,1.00,3.11,-5.13,-3.78
1777056658603,561015,0.02,0.01,1.00,3.17,-4.76,-3.91
1777056658603,561025,0.01,0.01,1.00,3.11,-4.64,-3.85
1777056658604,561035,0.01,0.01,1.01,3.05,-4.88,-3.85
1777056658604,561045,0.01,0.01,1.00,2.81,-5.00,-3.91
1777056658604,561055,0.01,0.01,1.00,2.99,-4.88,-3.91
1777056658604,561065,0.01,0.01,1.00,3.11,-4.76,-3.85
1777056658604,561075,0.01,0.01,1.00,3.17,-4.88,-3.85
1777056658604,561085,0.01,0.03,1.00,3.05,-4.76,-3.42
1777056658604,561095,0.02,0.04,1.00,2.87,-4.52,2.20
1777056658604,561105,0.02,-0.00,1.01,2.93,-5.07,7.57
1777056658605,561115,0.01,-0.02,1.01,2.81,-5.62,2.99
1777056658605,561125,0.01,0.01,1.00,2.81,-5.74,-2.26
1777056658605,561135,0.02,0.01,1.00,2.93,-4.70,-3.66
1777056658605,561155,0.01,0.02,1.01,3.11,-4.39,-2.81
1777056658605,561175,0.01,0.01,1.00,3.23,-4.88,-3.72
1777056658605,561195,0.01,0.01,1.01,3.17,-4.64,-3.85
1777056658605,561215,0.01,0.01,1.01,3.23,-4.70,-3.85
1777056658605,561235,0.01,0.01,1.01,3.36,-4.94,-3.85
1777056658605,561255,0.03,0.01,1.00,3.66,-5.55,-7.81
1777056658606,561275,0.04,-0.00,1.00,3.30,-6.77,-19.71
1777056658606,561295,0.04,0.02,1.01,3.78,-8.24,-10.99
1777056658606,561315,0.06,0.03,1.00,3.78,-8.61,-3.11
1777056658606,561335,0.01,0.02,1.00,3.72,-6.41,-3.91
1777056658606,561355,0.02,0.01,0.97,2.32,-2.38,-7.20
1777056658606,561375,-0.01,0.02,1.01,1.65,-0.61,-8.42
1777056658606,561395,-0.02,0.03,1.00,3.05,-2.99,-2.75
1777056658606,561415,0.00,0.03,1.00,1.95,-2.38,4.21
1777056658606,561435,0.02,0.05,1.00,2.50,-0.43,7.02
1777056658607,561455,0.01,0.03,1.01,3.11,-0.73,-5.13
1777056658607,561475,0.02,0.06,1.00,2.87,-1.89,-21.24
1777056658607,561495,0.00,0.08,1.01,2.81,-1.65,-30.64
1777056658607,561515,0.01,0.05,1.01,3.60,-2.56,-41.63
1777056658607,561535,0.04,0.02,1.00,4.39,-4.64,-55.18
1777056658607,561555,-0.03,0.01,1.00,4.58,-5.74,-62.74
1777056658607,561575,-0.01,0.01,1.00,4.39,-9.58,-63.23
1777056658608,561595,0.03,0.02,1.00,4.52,-6.35,-60.18
1777056658608,561615,0.04,-0.02,1.01,4.46,-2.01,-55.73
1777056658608,561625,0.04,-0.07,1.01,3.72,-2.20,-52.55
1777056658608,561635,0.02,-0.08,1.00,4.09,-3.42,-46.81
1777056658608,561645,0.01,-0.05,1.01,3.85,-5.37,-40.04
1777056658608,561655,0.00,0.01,1.00,4.09,-6.96,-34.18
1777056658608,561665,-0.05,0.04,1.00,3.91,-7.87,-31.68
1777056658608,561675,-0.02,0.09,1.00,4.33,-8.67,-33.51
1777056658609,561685,-0.01,0.08,1.00,3.78,-8.54,-40.95
1777056658609,561695,-0.01,0.06,1.01,4.33,-7.32,-48.34
1777056658609,561705,0.01,0.04,1.00,4.09,-5.43,-52.19
1777056658609,561715,0.03,0.00,1.00,3.42,-2.99,-52.73
1777056658609,561725,0.05,-0.02,1.00,3.30,-0.49,-50.72
1777056658609,561735,0.04,-0.07,1.02,3.42,-0.24,-47.73
1777056658609,561745,0.04,-0.08,1.01,3.97,-1.83,-41.81
1777056658609,561755,0.02,-0.08,1.00,3.78,-4.46,-34.00
1777056658609,561765,0.02,-0.07,1.00,3.66,-6.84,-24.23
1777056658610,561775,0.04,-0.06,1.00,3.78,-6.84,-13.73
1777056658610,561785,0.02,-0.01,1.00,2.93,-4.58,-5.68
1777056658610,561795,0.00,0.01,1.00,2.62,-2.26,-2.99
1777056658610,561805,-0.01,0.03,1.01,2.87,-2.20,-4.46
1777056658610,561815,-0.00,0.03,1.01,3.48,-3.23,-7.20
1777056658610,561825,-0.00,0.02,1.00,4.03,-4.27,-9.09
1777056658610,561835,0.01,-0.01,1.01,3.91,-4.82,-9.28
1777056658610,561845,0.02,-0.02,1.00,3.85,-5.49,-7.26
1777056658611,561855,0.03,-0.01,1.01,3.72,-6.29,-4.82
1777056658611,561865,-0.00,0.01,1.01,4.09,-7.26,-3.91
1777056658611,561875,-0.01,0.01,1.01,4.27,-9.03,-3.97
1777056658611,561885,-0.03,-0.01,1.00,4.46,-10.93,-3.72
1777056658611,561895,-0.01,-0.00,1.00,3.78,-11.47,-1.53
1777056658611,561905,0.00,0.01,1.00,3.30,-10.31,1.65
1777056658611,561915,-0.02,0.01,1.00,2.93,-8.73,3.66
1777056658611,561925,-0.09,0.05,0.99,2.87,-4.52,9.83
1777056658611,561935,-0.01,0.00,1.01,2.32,2.93,21.85
1777056658612,561945,0.03,0.05,0.99,3.05,-2.26,20.69
1777056658612,561955,0.04,0.03,1.01,3.30,-4.39,21.36
1777056658612,561965,0.04,0.03,1.00,2.75,-5.43,22.64
1777056658612,561975,0.00,0.01,1.00,2.44,-5.13,22.40
1777056658612,561985,0.09,0.04,1.01,3.30,-8.73,19.59
1777056658612,561995,0.04,0.02,1.00,3.11,-13.31,10.13
1777056658612,562005,0.03,0.01,1.00,2.69,-10.44,7.93
1777056658612,562015,0.06,-0.00,0.98,2.81,-8.73,5.37
1777056658612,562025,0.02,0.01,1.01,3.05,-1.83,1.10
1777056658613,562035,0.01,0.01,1.01,3.48,-1.83,-2.87
1777056658613,562045,0.01,0.02,1.01,3.42,-4.09,-3.60
1777056658613,562055,0.01,0.01,1.00,3.36,-6.77,-3.66
1777056658613,562065,0.02,0.01,1.00,3.17,-6.84,-3.60
1777056658613,562075,0.02,0.01,1.00,3.17,-5.37,-3.60
1777056658613,562085,0.01,0.01,1.00,3.05,-4.15,-3.72
1777056658613,562095,0.01,0.01,1.00,2.87,-4.27,-3.78
1777056658613,562105,0.01,0.01,1.00,2.81,-5.13,-3.85
1777056658614,562115,0.01,0.01,1.00,3.05,-5.43,-3.78
1777056658614,562125,0.01,0.01,1.00,2.99,-5.07,-3.72
1777056658614,562135,0.01,0.01,1.00,2.93,-4.76,-3.78
1777056658614,562145,0.01,0.01,1.00,2.93,-4.82,-3.85
1777056658614,562155,0.01,0.01,1.00,2.87,-4.94,-3.85
1777056658614,562165,0.02,0.01,1.00,3.11,-5.19,-3.85
1777056658614,562175,0.02,0.02,1.00,3.54,-5.13,-3.78
1777056658614,562185,0.01,0.01,1.00,3.42,-4.94,-3.78
1777056658614,562195,0.01,0.01,1.00,3.11,-4.94,-3.91
1777056658615,562205,0.01,0.01,1.00,2.99,-5.07,-3.85
1777056658615,562215,0.01,0.01,1.00,2.93,-5.07,-3.85
1777056658615,562225,0.02,0.01,1.00,3.17,-5.00,-3.85
1777056658615,562235,0.02,0.01,1.00,3.48,-4.94,-3.85
1777056658615,562245,0.01,0.01,1.01,3.30,-5.00,-3.85
1777056658615,562255,0.01,0.01,1.00,3.05,-5.00,-3.78
1777056658615,562265,0.01,0.01,1.01,2.99,-5.00,-3.91
1777056658615,562275,0.01,0.01,1.01,3.17,-4.88,-3.85
1777056658615,562285,0.01,0.01,1.01,3.36,-5.07,-3.78
1777056658616,562295,0.01,0.01,1.00,3.66,-5.13,-3.78
1777056658616,562305,0.01,0.01,1.00,3.54,-5.07,-3.85
1777056658616,562315,0.01,0.02,1.00,3.48,-5.19,-3.85
1777056658616,562325,0.02,0.02,1.00,3.42,-5.25,-3.91
1777056658616,562335,0.02,0.02,1.00,3.48,-5.19,-3.85
1777056658616,562345,0.02,0.02,1.00,3.42,-5.19,-3.91
1777056658616,562355,0.02,0.02,1.00,3.36,-4.94,-3.78
1777056658616,562365,0.02,0.02,1.00,3.42,-5.07,-3.78
1777056658616,562375,0.01,0.01,1.00,3.30,-4.94,-3.78
1777056658617,562385,0.01,0.01,1.00,3.48,-5.00,-3.72
1777056658617,562395,0.01,0.01,1.00,3.60,-5.07,-3.72
1777056658617,562405,0.01,0.01,1.00,3.42,-5.07,-3.78
1777056658617,562415,0.01,0.01,1.00,3.23,-5.07,-3.78
1777056658617,562425,0.01,0.01,1.00,3.23,-5.07,-3.78
1777056658617,562435,0.01,0.01,1.00,3.30,-5.07,-3.85
1777056658617,562445,0.02,0.02,1.00,3.36,-5.00,-3.91
1777056658617,562455,0.02,0.02,1.00,3.54,-5.19,-3.85
1777056658618,562465,0.02,0.02,1.00,3.48,-5.19,-3.78
1777056658618,562475,0.02,0.02,1.00,3.54,-5.07,-3.72
1777056658618,562485,0.01,0.01,1.00,3.23,-4.94,-3.78
1777056658618,562495,0.01,0.01,1.00,3.05,-5.07,-3.85
1777056658618,562505,0.02,0.02,1.00,3.30,-4.94,-3.78
1777056658618,562515,0.02,0.02,1.00,3.48,-5.07,-3.78
1777056658618,562525,0.02,0.01,1.00,3.17,-4.94,-3.78
1777056658618,562535,0.02,0.01,1.00,2.87,-4.94,-3.85
1777056658618,562545,0.02,0.02,1.00,3.05,-5.00,-3.91
1777056658619,562555,0.02,0.02,1.00,3.23,-4.94,-3.85
1777056658619,562565,0.01,0.01,1.01,3.11,-4.82,-3.78
1777056658619,562575,0.00,0.01,1.01,3.11,-4.64,-3.85
1777056658619,562585,0.02,0.02,1.00,3.17,-5.07,-3.91
1777056658619,562595,0.02,0.02,1.00,3.11,-5.31,-3.85
1777056658619,562605,0.01,0.01,1.00,3.23,-4.94,-3.85
1777056658619,562615,0.02,0.01,1.01,3.36,-4.76,-3.78
1777056658619,562625,0.01,0.01,1.00,3.48,-4.82,-3.78
1777056658620,562635,0.01,0.02,1.00,3.23,-5.13,-3.78
1777056658620,562645,0.02,0.02,1.00,3.30,-5.31,-3.78
1777056658620,562655,0.02,0.02,1.00,3.42,-5.00,-3.78
1777056658620,562665,0.01,0.01,1.01,3.48,-4.82,-3.85
1777056658620,562675,0.01,0.01,1.00,3.54,-4.76,-3.78
1777056658620,562685,0.02,0.01,1.00,3.48,-5.07,-3.72
1777056658620,562695,0.02,0.02,1.00,3.36,-5.07,-3.85
1777056658620,562705,0.02,0.01,1.00,3.11,-5.00,-3.91
1777056658620,562715,0.01,0.01,1.00,2.87,-4.82,-3.85
1777056658621,562725,0.02,0.01,1.00,3.17,-4.82,-3.85
1777056658621,562735,0.01,0.01,1.00,3.54,-5.07,-3.78
1777056658621,562745,0.02,0.02,1.00,3.30,-5.13,-3.85
1777056658621,562755,0.01,0.01,1.00,3.17,-4.94,-3.91
1777056658621,562765,0.01,0.01,1.00,3.23,-4.88,-3.85
1777056658621,562775,0.01,0.02,1.00,3.23,-4.94,-3.78
1777056658621,562785,0.02,0.02,1.00,3.17,-5.00,-3.78
1777056658621,562795,0.01,0.02,1.00,3.17,-5.00,-3.78
1777056658621,562805,0.01,0.02,1.00,3.23,-4.88,-3.78
1777056658622,562815,0.01,0.01,1.00,3.23,-4.88,-3.78
1777056658622,562825,0.01,0.01,1.01,3.17,-4.94,-3.85
1777056658622,562835,0.01,0.01,1.00,3.11,-4.88,-3.85
1777056658622,562845,0.01,0.02,1.00,3.23,-5.00,-3.91
1777056658622,562855,0.01,0.01,1.00,3.17,-5.00,-3.85
1777056658622,562865,0.01,0.02,1.00,3.36,-5.07,-3.91
1777056658622,562875,0.02,0.02,1.00,3.48,-4.94,-3.72
1777056658622,562885,0.02,0.02,1.00,3.54,-4.94,-3.72
1777056658622,562895,0.01,0.01,1.00,3.48,-5.00,-3.78
1777056658623,562905,0.01,0.01,1.00,3.36,-4.94,-3.78
1777056658623,562915,0.01,0.02,1.00,3.23,-4.94,-3.85
1777056658623,562925,0.01,0.01,1.00,3.30,-5.07,-3.78
1777056658623,562935,0.01,0.01,1.00,3.42,-5.00,-3.72
1777056658623,562945,0.01,0.01,1.00,3.36,-5.07,-3.78
1777056658623,562955,0.01,0.01,1.00,3.17,-4.94,-3.85
1777056658623,562965,0.02,0.02,1.00,3.23,-5.07,-3.85
1777056658623,562975,0.01,0.02,1.00,3.48,-5.07,-3.78
1777056658623,562985,0.01,0.01,1.00,3.54,-5.00,-3.78
1777056658624,562995,0.01,0.01,1.00,3.48,-5.00,-3.85
1777056658624,563005,0.01,0.01,1.00,3.36,-5.00,-3.91
1777056658624,563015,0.01,0.01,1.00,3.17,-5.00,-3.85
1777056658624,563025,0.01,0.01,1.00,3.30,-5.00,-3.85
1777056658624,563035,0.01,0.01,1.00,3.48,-5.13,-3.85
1777056658624,563045,0.02,0.02,1.00,3.42,-5.13,-3.78
1777056658624,563055,0.02,0.01,1.00,3.48,-5.19,-3.78
1777056658624,563065,0.02,0.02,1.00,3.60,-5.13,-3.78
1777056658624,563075,0.02,0.02,1.00,3.60,-5.07,-3.78
1777056658625,563085,0.02,0.02,1.00,3.23,-5.00,-3.78
1777056658625,563095,0.02,0.02,1.00,2.81,-4.88,-3.85
1777056658625,563105,0.01,0.01,1.00,2.93,-4.88,-3.85
1777056658625,563115,0.01,0.01,1.00,3.17,-4.76,-3.91
1777056658625,563125,0.01,0.02,1.00,3.11,-4.88,-3.91
1777056658625,563135,0.01,0.01,1.00,3.30,-4.94,-3.85
1777056658625,563145,0.01,0.01,1.00,3.17,-5.00,-3.85
1777056658625,563155,0.02,0.01,1.00,3.05,-4.94,-3.91
1777056658625,563165,0.01,0.02,1.00,3.23,-4.88,-3.85
1777056658625,563175,0.02,0.02,1.00,3.48,-5.00,-3.72
1777056658626,563185,0.02,0.02,1.00,3.42,-5.00,-3.85
1777056658626,563195,0.02,0.02,1.00,3.17,-4.88,-3.91
1777056658626,563205,0.02,0.01,1.00,3.05,-5.00,-3.85
1777056658626,563215,0.01,0.01,1.00,2.87,-4.88,-3.91
1777056658626,563225,0.01,0.01,1.00,3.11,-4.88,-3.85
1777056658626,563235,0.02,0.01,1.00,3.36,-4.94,-3.85
1777056658626,563245,0.01,0.02,1.00,3.30,-4.94,-3.85
1777056658626,563255,0.02,0.02,1.00,3.17,-5.07,-3.78
1777056658626,563265,0.02,0.02,1.00,3.11,-5.00,-3.85
1777056658627,563275,0.01,0.02,1.00,3.17,-4.94,-3.91
1777056658627,563285,0.02,0.02,1.00,3.05,-4.88,-3.85
1777056658627,563295,0.02,0.02,1.00,3.17,-4.94,-3.78
1777056658627,563305,0.02,0.02,1.00,3.17,-5.00,-3.78
1777056658627,563315,0.02,0.02,1.00,3.11,-4.82,-3.85
1777056658627,563325,0.01,0.01,1.00,2.93,-4.70,-3.78
1777056658627,563335,0.01,0.01,1.00,2.69,-4.64,-3.85
1777056658628,563355,0.02,0.02,1.00,3.23,-4.94,-3.85
1777056658628,563375,0.01,0.02,1.00,3.05,-4.82,-3.85
1777056658628,563395,0.01,0.01,1.00,2.75,-4.70,-3.78
1777056658628,563415,0.01,0.01,1.00,2.87,-4.76,-3.78
1777056658628,563435,0.01,0.01,1.00,3.23,-4.88,-3.85
1777056658628,563455,0.02,0.02,1.01,3.05,-4.64,-3.85
1777056658628,563475,0.01,0.01,1.00,3.05,-4.94,-3.78
1777056658628,563495,0.02,0.01,1.01,3.11,-4.70,-3.78
1777056658628,563515,0.02,0.02,1.00,3.17,-5.13,-3.85
1777056658628,563535,0.01,0.01,1.00,3.30,-4.94,-3.85
1777056658629,563555,0.02,0.02,0.97,3.23,-4.94,-3.78
1777056658629,563575,0.02,0.01,1.00,3.23,-4.88,-3.85
1777056658629,563595,0.01,0.01,1.00,3.23,-4.94,-3.85
1777056658629,563615,0.01,0.02,1.00,3.36,-5.07,-3.85
1777056658629,563635,0.02,0.02,1.00,3.30,-4.88,-3.85
1777056658629,563655,0.01,0.01,1.00,2.99,-4.94,-3.91
1777056658629,563675,0.01,0.01,1.00,3.05,-4.88,-3.78
1777056658629,563695,0.01,0.01,1.00,3.30,-5.00,-3.85
1777056658629,563715,0.01,0.01,1.00,3.23,-5.00,-3.78
1777056658630,563735,0.02,0.02,1.00,3.30,-4.94,-3.78
1777056658630,563755,0.01,0.01,1.00,3.23,-4.82,-3.72
1777056658630,563775,0.01,0.01,1.00,3.05,-4.88,-3.85
1777056658630,563795,0.01,0.01,1.00,2.75,-4.94,-3.85
1777056658630,563815,0.01,0.01,1.00,2.99,-4.88,-3.85
1777056658630,563825,0.02,0.01,1.00,3.17,-4.88,-3.78
1777056658630,563835,0.02,0.02,1.00,3.23,-5.00,-3.78
1777056658630,563845,0.01,0.02,1.00,3.23,-5.00,-3.78
1777056658630,563855,0.01,0.01,1.00,3.30,-4.88,-3.78
1777056658631,563865,0.02,0.01,1.00,3.48,-5.07,-3.78
1777056658631,563875,0.01,0.01,1.00,3.54,-5.07,-3.85
1777056658631,563885,0.02,0.01,1.00,3.48,-5.00,-3.78
1777056658631,563895,0.02,0.01,1.00,3.30,-4.94,-3.72
1777056658631,563905,0.01,0.01,1.00,3.11,-5.07,-3.78
1777056658631,563915,0.01,0.01,1.00,3.11,-4.94,-3.85
1777056658631,563925,0.01,0.01,1.00,3.23,-4.88,-3.85
1777056658631,563935,0.02,0.01,1.00,3.23,-5.00,-3.78
1777056658631,563945,0.01,0.01,1.00,3.17,-4.88,-3.78
1777056658631,563955,0.01,0.01,1.00,2.99,-4.94,-3.91
1777056658632,563965,0.01,0.01,1.00,2.87,-4.88,-3.91
1777056658632,563975,0.02,0.02,1.00,3.05,-4.88,-3.97
1777056658632,563985,0.01,0.02,1.00,3.30,-5.00,-3.78
1777056658632,563995,0.02,0.02,1.00,3.30,-4.94,-3.85
1777056658632,564005,0.01,0.01,1.00,3.30,-4.88,-3.78
1777056658632,564015,0.01,0.02,1.00,3.30,-4.94,-3.72
1777056658632,564025,0.02,0.02,1.00,3.30,-4.94,-3.85
1777056658632,564035,0.01,0.01,1.00,3.05,-4.82,-3.85
1777056658632,564045,0.01,0.01,1.00,2.87,-4.82,-3.85
1777056658633,564055,0.02,0.02,1.00,3.11,-5.00,-3.85
1777056658633,564065,0.02,0.02,1.00,3.42,-5.00,-3.78
1777056658633,564075,0.01,0.01,1.00,3.11,-4.94,-3.85
1777056658633,564085,0.01,0.01,1.00,2.87,-4.88,-3.85
1777056658633,564095,0.01,0.01,1.00,2.75,-4.88,-3.85
1777056658633,564105,0.01,0.01,1.00,2.75,-4.88,-3.97
1777056658633,564115,0.01,0.01,1.00,2.99,-4.82,-3.85
1777056658633,564125,0.01,0.01,1.00,3.30,-4.88,-3.85
1777056658633,564135,0.01,0.01,1.00,3.11,-5.00,-3.85
1777056658634,564145,0.01,0.01,1.00,2.99,-4.94,-3.85
1777056658634,564155,0.01,0.01,1.00,2.99,-4.88,-3.85
1777056658634,564165,0.01,0.01,1.00,2.99,-4.88,-3.85
1777056658634,564175,0.01,0.01,1.01,3.17,-5.00,-3.78
1777056658634,564185,0.02,0.02,1.00,3.48,-4.88,-3.78
1777056658634,564195,0.03,0.02,0.99,3.30,-5.07,-3.85
1777056658634,564205,0.00,0.01,1.01,3.11,-4.88,-3.72
1777056658634,564215,0.02,0.02,0.99,3.11,-4.76,-3.78
1777056658634,564225,0.01,0.01,1.01,2.99,-4.82,-3.78
1777056658635,564235,0.01,0.02,1.00,3.23,-5.07,-3.78
1777056658635,564245,0.02,0.02,1.00,3.48,-5.19,-3.85
1777056658635,564255,0.01,0.01,1.00,3.17,-4.82,-3.72
1777056658635,564265,0.01,0.01,1.01,2.93,-4.76,-3.91
1777056658635,564275,0.01,0.01,1.01,2.99,-4.82,-3.85
1777056658635,564285,0.02,0.02,1.00,3.05,-5.13,-3.85
1777056658635,564295,0.01,0.01,1.00,3.17,-5.07,-3.78
1777056658635,564305,0.02,0.01,1.00,3.30,-4.94,-3.78
1777056658635,564315,0.01,0.01,1.00,3.30,-4.82,-3.85
1777056658636,564325,0.02,0.01,1.00,3.11,-5.00,-3.78
1777056658636,564335,0.01,0.01,1.00,3.05,-5.07,-3.85
1777056658636,564345,0.02,0.01,1.00,2.93,-4.94,-3.91
1777056658636,564355,0.01,0.01,1.00,2.75,-4.88,-3.85
1777056658636,564365,0.01,0.01,1.01,2.87,-4.70,-3.91
1777056658636,564375,0.02,0.01,1.00,2.99,-5.00,-3.91
1777056658636,564385,0.01,0.01,1.00,2.99,-4.94,-3.85
1777056658636,564395,0.02,0.02,1.00,2.99,-5.00,-3.85
1777056658636,564405,0.01,0.01,1.00,3.30,-4.88,-3.91
1777056658636,564415,0.02,0.02,1.00,3.11,-4.88,-3.91
1777056658636,564425,0.01,0.01,1.00,2.99,-4.88,-3.91
1777056658637,564435,0.02,0.01,1.00,3.17,-5.00,-3.78
1777056658637,564445,0.02,0.02,1.00,3.23,-5.00,-3.78
1777056658637,564455,0.01,0.01,1.00,3.17,-4.70,-3.85
1777056658637,564465,0.01,0.01,1.00,3.05,-4.76,-3.78
1777056658637,564475,0.01,0.01,1.00,3.17,-4.94,-3.78
1777056658637,564485,0.02,0.02,1.00,3.36,-5.07,-3.78
1777056658637,564495,0.01,0.01,1.00,3.30,-4.88,-3.85
1777056658637,564505,0.01,0.02,1.00,3.36,-5.00,-3.85
1777056658637,564515,0.01,0.01,1.00,3.23,-4.88,-3.85
1777056658637,564525,0.01,0.01,1.00,3.05,-5.00,-3.85
1777056658638,564535,0.01,0.01,1.00,2.99,-4.94,-3.85
1777056658638,564545,0.01,0.01,1.01,2.87,-4.82,-3.85
1777056658638,564555,0.01,0.01,1.00,3.05,-4.88,-3.91
1777056658638,564565,0.01,0.01,1.00,3.17,-4.88,-3.85
1777056658638,564575,0.01,0.01,1.00,3.05,-4.94,-3.85
1777056658638,564585,0.01,0.01,1.00,3.05,-4.94,-3.85
1777056658638,564595,0.02,0.02,1.00,3.05,-4.88,-3.85
1777056658638,564605,0.01,0.01,1.00,2.93,-4.88,-3.85
1777056658638,564615,0.01,0.01,1.00,2.93,-4.82,-3.85
1777056658638,564625,0.01,0.01,1.00,2.93,-4.76,-3.85
1777056658639,564635,0.01,0.01,1.00,2.93,-4.82,-3.85
1777056658639,564645,0.01,0.02,1.00,2.93,-4.94,-3.91
1777056658639,564655,0.02,0.02,1.00,2.87,-4.94,-3.85
1777056658639,564665,0.01,0.01,1.00,3.05,-4.76,-3.78
1777056658639,564675,0.02,0.01,1.00,3.11,-4.88,-3.85
1777056658639,564685,0.02,0.02,1.00,3.17,-5.13,-3.85
1777056658639,564695,0.01,0.02,1.00,3.17,-5.00,-3.72
1777056658639,564705,0.02,0.02,1.00,3.23,-4.70,-3.72
1777056658639,564715,0.02,0.02,0.99,3.17,-4.88,-3.66
1777056658639,564725,0.05,0.01,0.98,3.11,-4.76,-3.78
1777056658640,564735,-0.02,0.03,1.00,3.42,1.22,-3.05
1777056658640,564745,-0.05,0.00,1.03,3.30,5.31,6.10
1777056658640,564755,-0.05,0.02,1.03,2.93,-4.09,14.47
1777056658640,564765,0.00,0.02,1.01,2.32,-14.34,16.30
1777056658640,564775,0.10,-0.01,0.98,2.50,-15.50,16.66
1777056658640,564785,0.06,-0.00,0.99,3.23,-7.32,6.59
1777056658640,564795,0.01,0.02,1.00,3.72,0.55,-2.08
1777056658640,564805,0.00,0.02,1.01,3.54,0.31,-1.83
1777056658640,564815,0.01,0.02,1.00,3.23,-5.68,-3.30
1777056658640,564825,0.00,0.03,1.00,2.99,-5.98,-0.06
1777056658641,564835,0.04,-0.00,0.99,2.93,-3.97,4.88
1777056658641,564845,0.01,0.00,1.00,3.05,0.92,1.46
1777056658641,564855,-0.00,0.01,1.01,3.11,-0.55,-2.56
1777056658641,564865,0.00,0.01,1.01,3.42,-3.85,-3.66
1777056658641,564875,0.01,0.02,1.00,3.48,-6.47,-3.91
1777056658641,564885,0.04,0.01,0.99,3.36,-6.65,-3.72
1777056658641,564895,0.01,0.02,1.00,3.54,-2.44,-3.78
1777056658641,564905,0.02,0.02,1.00,3.60,-0.98,-3.72
1777056658641,564915,0.01,0.02,1.00,3.97,0.12,-3.78
1777056658642,564925,0.00,0.02,1.00,3.72,-1.59,-3.78
1777056658642,564935,0.00,0.01,1.00,3.42,-4.09,-3.72
1777056658642,564945,0.00,0.01,1.00,3.48,-4.88,-3.85
1777056658642,564955,0.01,0.02,1.00,2.99,-4.21,-3.91
1777056658642,564965,0.03,0.08,1.00,2.44,-3.36,-3.78
1777056658642,564975,0.03,0.11,1.00,3.11,-0.31,-2.69
1777056658642,564985,0.04,0.14,1.00,3.60,-0.55,-5.43
1777056658642,564995,0.04,0.08,1.01,3.60,0.12,-8.24
1777056658642,565005,0.02,0.03,1.00,4.09,-2.99,-12.08
1777056658642,565015,0.00,-0.05,1.01,3.36,-6.35,-7.81
1777056658643,565025,-0.04,-0.16,1.01,3.36,-6.96,1.77
1777056658643,565035,-0.07,-0.10,1.00,3.11,-7.39,4.03
1777056658643,565045,-0.00,0.02,1.00,3.23,-6.23,8.67
1777056658643,565055,0.02,0.03,1.00,2.75,-5.80,15.81
1777056658643,565065,0.01,-0.00,1.00,2.81,-5.68,25.27
1777056658643,565075,-0.01,0.01,1.00,2.56,-7.20,19.78
1777056658643,565085,0.00,0.02,1.00,2.38,-10.01,14.47
1777056658643,565095,0.02,0.02,1.00,2.32,-11.54,14.10
1777056658643,565105,-0.00,0.01,1.00,2.69,-8.18,11.54
1777056658643,565115,0.02,0.01,1.00,2.75,-7.93,9.09
1777056658644,565125,-0.01,-0.00,1.01,3.36,-5.31,5.74
1777056658644,565135,0.01,0.01,1.00,3.30,-6.35,-0.06
1777056658644,565145,0.00,0.01,1.01,3.05,-6.04,-2.08
1777056658644,565155,0.01,0.03,1.00,2.99,-6.65,-1.65
1777056658644,565165,0.02,0.01,1.00,2.87,-6.77,1.46
1777056658644,565175,0.01,0.01,1.00,2.99,-6.35,2.81
1777056658644,565185,0.01,0.01,1.00,3.17,-5.92,2.14
1777056658644,565195,0.01,0.01,1.00,3.36,-5.49,-0.18
1777056658644,565205,0.01,0.01,1.00,3.60,-5.37,-2.32
1777056658645,565215,0.01,0.01,1.01,3.48,-5.49,-3.78
1777056658645,565225,0.02,0.01,1.00,3.30,-5.49,-3.97
1777056658645,565235,0.01,0.02,1.00,3.42,-4.88,-3.91
1777056658645,565245,0.01,0.01,1.00,3.48,-5.31,-3.91
1777056658645,565255,0.01,0.01,1.00,3.30,-5.00,-3.91
1777056658645,565265,0.02,0.01,1.00,3.05,-5.13,-3.91
1777056658645,565275,0.02,0.02,1.00,3.11,-5.13,-3.85
1777056658645,565285,0.02,0.01,1.00,3.36,-5.07,-3.72
1777056658645,565295,0.01,0.01,1.00,3.05,-4.88,-3.85
1777056658645,565305,0.01,0.01,1.00,2.99,-4.88,-3.85
1777056658646,565315,0.01,0.01,1.00,3.11,-5.00,-3.91
1777056658646,565325,0.01,0.01,1.00,3.30,-5.07,-3.78
1777056658646,565335,0.01,0.01,1.00,3.17,-5.07,-3.85
1777056658646,565345,0.01,0.01,1.00,3.11,-4.94,-3.78
1777056658646,565355,0.01,0.01,1.00,3.23,-4.94,-3.78
1777056658646,565365,0.01,0.01,1.00,3.54,-5.00,-3.78
1777056658646,565375,0.01,0.01,1.00,3.30,-5.07,-3.85
1777056658646,565385,0.01,0.01,1.00,3.23,-5.13,-3.85
1777056658646,565395,0.01,0.01,1.00,3.30,-5.13,-3.91
1777056658646,565405,0.01,0.01,1.00,3.42,-5.07,-3.85
1777056658647,565415,0.01,0.01,1.00,3.23,-5.00,-3.85
1777056658647,565425,0.01,0.01,1.00,3.17,-5.00,-3.78
1777056658647,565435,0.01,0.01,1.00,3.05,-5.00,-3.78
1777056658647,565445,0.01,0.01,1.00,2.87,-4.88,-3.91
1777056658647,565455,0.02,0.02,1.00,3.11,-4.94,-3.85
1777056658647,565465,0.01,0.02,1.00,3.42,-5.07,-3.91
1777056658647,565475,0.01,0.01,1.00,3.23,-5.07,-3.91
1777056658647,565485,0.01,0.01,1.00,2.87,-4.82,-3.91
1777056658647,565495,0.01,0.01,1.00,2.87,-4.82,-3.91
1777056658647,565505,0.01,0.01,1.00,2.99,-4.88,-3.91
1777056658648,565515,0.01,0.02,1.00,3.23,-5.00,-3.85
1777056658648,565525,0.02,0.02,1.00,3.42,-5.13,-3.91
1777056658648,565535,0.01,0.01,1.00,3.30,-5.00,-3.78
1777056658648,565545,0.01,0.01,1.00,3.17,-4.88,-3.85
1777056658648,565565,0.02,0.01,1.00,3.17,-5.00,-3.85
1777056658648,565585,0.02,0.02,1.00,2.99,-4.82,-3.85
1777056658648,565605,0.01,0.01,1.00,3.05,-4.88,-3.78
1777056658648,565625,0.01,0.01,1.00,3.30,-4.94,-3.72
1777056658648,565645,0.01,0.01,1.00,3.11,-4.94,-3.85
1777056658648,565665,0.01,0.01,1.00,2.87,-4.94,-3.78
1777056658649,565685,0.01,0.01,1.00,2.81,-4.82,-3.85
1777056658649,565705,0.01,0.01,1.00,2.99,-4.88,-3.91
1777056658649,565725,0.02,0.02,1.00,3.48,-4.94,-3.78
1777056658649,565745,0.02,0.02,1.00,3.48,-5.00,-3.72
1777056658649,565765,0.01,0.01,1.00,3.23,-4.88,-3.85
1777056658649,565785,0.01,0.01,1.00,2.87,-4.94,-3.85
1777056658649,565805,0.01,0.01,1.00,2.99,-4.70,-3.85
1777056658649,565825,0.01,0.01,1.00,3.17,-4.88,-3.85
1777056658649,565845,0.01,0.02,1.00,3.11,-5.00,-3.78
1777056658649,565865,0.01,0.01,1.00,2.99,-4.82,-3.78
1777056658650,565885,0.01,0.01,1.00,3.11,-4.94,-3.85
1777056658650,565905,0.01,0.01,1.00,3.30,-5.00,-3.78
1777056658650,565925,0.01,0.01,1.00,3.05,-5.00,-3.85
1777056658650,565945,0.01,0.02,1.00,3.36,-4.88,-3.85
1777056658650,565965,0.02,0.02,1.00,3.42,-5.07,-3.85
1777056658650,565985,0.01,0.01,1.00,2.99,-4.94,-3.85
1777056658650,566005,0.01,0.01,1.00,2.93,-4.76,-3.85
1777056658650,566025,0.01,0.01,1.00,3.17,-5.07,-3.85
1777056658650,566035,0.01,0.02,1.00,3.23,-5.00,-3.91
1777056658650,566045,0.01,0.01,1.00,2.99,-5.00,-3.85
1777056658651,566055,0.01,0.01,1.00,2.87,-4.88,-3.91
1777056658651,566065,0.01,0.01,1.00,2.99,-4.88,-3.85
1777056658651,566075,0.01,0.01,1.00,2.93,-4.88,-3.78
1777056658651,566085,0.01,0.01,1.00,2.87,-4.88,-3.78
1777056658651,566095,0.01,0.01,1.00,2.81,-4.88,-3.85
1777056658651,566105,0.01,0.01,1.00,2.93,-4.88,-3.85
1777056658651,566115,0.01,0.01,1.00,3.17,-4.88,-3.85
1777056658651,566125,0.01,0.01,1.00,2.99,-4.88,-3.85
1777056658651,566135,0.01,0.01,1.00,2.93,-4.94,-3.91
1777056658651,566145,0.01,0.01,1.00,2.99,-4.94,-3.91
1777056658651,566155,0.01,0.01,1.00,3.05,-4.82,-3.85
1777056658652,566165,0.01,0.01,1.00,3.17,-4.94,-3.85
1777056658652,566175,0.01,0.02,1.00,3.17,-4.82,-3.85
1777056658652,566185,0.02,0.02,1.00,3.36,-4.88,-3.78
1777056658652,566195,0.01,0.02,1.00,3.42,-4.94,-3.78
1777056658652,566205,0.01,0.02,1.00,3.42,-4.94,-3.78
1777056658652,566215,0.01,0.01,1.00,3.30,-4.94,-3.85
1777056658652,566225,0.01,0.01,1.00,3.36,-4.94,-3.85
1777056658652,566235,0.01,0.01,1.00,3.23,-5.00,-3.78
1777056658652,566245,0.01,0.01,1.00,3.11,-5.00,-3.78
1777056658652,566255,0.01,0.01,1.00,3.05,-5.07,-3.85
1777056658653,566265,0.02,0.01,1.00,3.11,-4.94,-3.78
1777056658653,566275,0.01,0.01,1.00,3.23,-4.94,-3.85
1777056658653,566285,0.01,0.01,1.00,3.17,-4.94,-3.85
1777056658653,566295,0.01,0.01,1.00,3.17,-4.94,-3.85
1777056658653,566305,0.01,0.01,1.00,3.36,-5.07,-3.72
1777056658653,566315,0.01,0.01,1.00,3.42,-5.00,-3.66
1777056658653,566325,0.01,0.01,1.00,3.17,-4.88,-3.85
1777056658653,566335,0.01,0.01,1.00,2.87,-4.88,-3.91
1777056658653,566345,0.01,0.01,1.00,2.99,-4.88,-3.85
1777056658653,566355,0.01,0.01,1.00,3.11,-4.82,-3.85
1777056658653,566365,0.01,0.01,1.00,3.23,-4.82,-3.85
1777056658654,566375,0.01,0.01,1.00,3.36,-4.94,-3.78
1777056658654,566385,0.02,0.02,1.00,3.42,-5.13,-3.85
1777056658654,566395,0.01,0.02,1.00,3.48,-5.00,-3.78
1777056658654,566405,0.01,0.01,1.00,3.36,-5.00,-3.78
1777056658654,566415,0.01,0.01,1.00,3.42,-4.94,-3.72
1777056658654,566425,0.01,0.01,1.00,3.30,-4.94,-3.85
1777056658654,566435,0.01,0.01,1.00,3.05,-4.88,-3.85
1777056658654,566445,0.02,0.01,1.00,3.23,-5.07,-3.85
1777056658654,566455,0.02,0.01,1.00,3.42,-5.00,-3.78
1777056658654,566465,0.01,0.01,1.00,3.23,-4.94,-3.91
1777056658655,566475,0.01,0.01,1.00,2.93,-4.76,-3.91
1777056658655,566485,0.01,0.01,1.00,3.23,-4.82,-3.85
1777056658655,566495,0.01,0.01,1.00,3.48,-5.00,-3.78
1777056658655,566505,0.01,0.01,1.00,3.23,-4.94,-3.72
1777056658655,566515,0.01,0.01,1.00,3.05,-4.82,-3.85
1777056658655,566525,0.01,0.01,1.00,3.30,-4.88,-3.85
1777056658655,566535,0.01,0.01,1.00,3.48,-4.94,-3.78
1777056658655,566545,0.01,0.01,1.00,3.30,-5.00,-3.78
1777056658655,566555,0.01,0.01,1.00,2.99,-4.88,-3.91
1777056658656,566565,0.01,0.01,1.00,3.05,-4.94,-3.78
1777056658656,566575,0.01,0.01,1.00,3.30,-5.00,-3.78
1777056658656,566585,0.01,0.01,1.00,3.42,-5.00,-3.78
1777056658656,566595,0.01,0.01,1.00,3.42,-5.00,-3.78
1777056658656,566605,0.01,0.01,1.00,3.30,-4.94,-3.78
1777056658656,566615,0.01,0.01,1.00,3.23,-4.94,-3.78
1777056658656,566625,0.01,0.01,1.00,3.30,-5.07,-3.85
1777056658656,566635,0.01,0.01,1.00,3.36,-5.07,-3.78
1777056658656,566645,0.01,0.01,1.00,3.42,-5.00,-3.72
1777056658656,566655,0.01,0.01,1.00,3.42,-4.94,-3.72
1777056658657,566665,0.01,0.01,1.00,3.17,-5.00,-3.78
1777056658657,566675,0.01,0.01,1.00,2.99,-4.94,-3.85
1777056658657,566685,0.01,0.01,1.00,3.17,-4.88,-3.85
1777056658657,566695,0.01,0.01,1.00,3.42,-5.00,-3.85
1777056658657,566705,0.02,0.01,1.00,3.23,-4.94,-3.85
1777056658657,566715,0.01,0.01,1.00,3.11,-5.00,-3.85
1777056658657,566725,0.01,0.01,1.00,2.93,-5.00,-3.85
1777056658657,566735,0.01,0.01,1.00,2.87,-4.82,-3.91
1777056658657,566745,0.01,0.01,1.00,2.99,-5.00,-3.85
1777056658657,566755,0.01,0.01,1.00,3.17,-4.88,-3.85
1777056658658,566765,0.01,0.01,1.00,3.17,-4.88,-3.85
1777056658658,566775,0.01,0.01,1.00,3.11,-4.94,-3.85
1777056658658,566785,0.01,0.01,1.00,3.05,-4.82,-3.91
1777056658658,566795,0.01,0.01,1.00,3.05,-5.00,-3.97
1777056658658,566805,0.01,0.01,1.00,3.05,-5.00,-3.91
1777056658658,566815,0.01,0.01,1.00,3.05,-4.94,-3.91
1777056658658,566825,0.01,0.01,1.00,3.17,-4.94,-3.78
1777056658658,566835,0.01,0.01,1.00,3.30,-4.88,-3.85
1777056658658,566845,0.01,0.01,1.00,3.30,-4.94,-3.91
1777056658658,566855,0.01,0.02,1.00,3.36,-5.07,-3.85
1777056658659,566865,0.02,0.01,1.00,3.42,-5.07,-3.72
1777056658659,566875,0.01,0.01,1.00,3.42,-4.94,-3.66
1777056658659,566885,0.01,0.01,1.00,3.30,-5.07,-3.78
1777056658659,566895,0.01,0.01,1.00,3.23,-4.94,-3.85
1777056658659,566905,0.01,0.01,1.00,3.11,-4.94,-3.91
1777056658659,566915,0.01,0.01,1.00,2.93,-4.88,-3.91
1777056658659,566925,0.01,0.01,1.00,3.05,-5.00,-3.85
1777056658659,566935,0.01,0.01,1.00,3.11,-4.94,-3.91
1777056658659,566945,0.01,0.01,1.00,3.05,-4.94,-3.91
1777056658659,566955,0.01,0.02,1.00,3.11,-4.94,-3.85
1777056658660,566965,0.01,0.01,1.00,3.11,-4.88,-3.78
1777056658660,566975,0.01,0.01,1.01,3.23,-4.88,-3.85
1777056658660,566985,0.01,0.01,1.00,3.11,-4.88,-3.78
1777056658660,566995,0.01,0.01,1.00,2.87,-4.76,-3.85
1777056658660,567005,0.01,0.01,1.00,3.05,-5.00,-3.85
1777056658660,567015,0.01,0.01,1.00,3.05,-5.07,-3.85
1777056658660,567025,0.02,0.02,1.00,3.23,-4.94,-3.78
1777056658660,567035,0.01,0.02,1.00,3.30,-4.88,-3.78
1777056658660,567045,0.01,0.01,1.00,3.42,-4.82,-3.78
1777056658660,567055,0.01,0.02,1.01,3.48,-4.82,-3.78
1777056658660,567065,0.01,0.01,1.00,3.23,-4.94,-3.85
1777056658661,567075,0.01,0.01,1.00,2.93,-4.82,-3.85
1777056658661,567085,0.01,0.01,1.00,3.17,-5.00,-3.85
1777056658661,567095,0.01,0.01,1.00,3.36,-5.07,-3.85
1777056658661,567105,0.02,0.01,1.00,3.42,-5.07,-3.85
1777056658661,567115,0.01,0.02,1.00,3.54,-5.00,-3.78
1777056658661,567125,0.02,0.02,1.00,3.36,-5.07,-3.72
1777056658661,567135,0.01,0.01,1.00,3.30,-4.88,-3.85
1777056658661,567145,0.01,0.01,1.00,3.36,-5.00,-3.85
1777056658661,567155,0.01,0.01,1.00,3.36,-4.94,-3.78
1777056658661,567165,0.01,0.01,1.00,3.30,-5.00,-3.85
1777056658661,567175,0.01,0.01,1.00,3.17,-5.07,-3.78
1777056658662,567185,0.01,0.01,1.00,3.23,-4.94,-3.85
1777056658662,567195,0.01,0.01,1.00,3.23,-4.88,-3.85
1777056658662,567205,0.02,0.01,1.00,3.05,-4.94,-3.91
1777056658662,567215,0.02,0.02,1.00,2.87,-5.00,-3.85
1777056658662,567225,0.01,0.01,1.00,2.99,-4.94,-3.85
1777056658662,567235,0.01,0.02,1.01,3.23,-4.70,-3.85
1777056658662,567245,0.01,0.01,1.00,3.17,-4.76,-3.85
1777056658662,567255,0.01,0.01,1.00,3.17,-4.94,-3.85
1777056658662,567265,0.01,0.01,1.00,3.11,-5.00,-3.85
1777056658662,567275,0.01,0.01,1.00,3.05,-4.76,-3.78
1777056658662,567285,0.01,0.01,1.00,3.17,-4.82,-3.85
1777056658663,567295,0.01,0.01,1.00,3.30,-5.00,-3.78
1777056658663,567305,0.01,0.01,1.00,3.30,-5.07,-3.78
1777056658663,567315,0.01,0.01,1.00,3.36,-5.00,-3.78
1777056658663,567325,0.01,0.01,1.00,3.36,-4.94,-3.72
1777056658663,567335,0.01,0.01,1.00,3.30,-4.94,-3.85
1777056658663,567345,0.01,0.01,1.00,3.17,-4.88,-3.85
1777056658663,567355,0.01,0.01,1.00,3.05,-4.82,-3.78
1777056658663,567365,0.01,0.01,1.00,2.99,-4.76,-3.91
1777056658663,567375,0.01,0.01,1.00,2.93,-4.82,-3.91
1777056658663,567385,0.01,0.02,1.00,3.11,-5.00,-3.85
1777056658663,567395,0.01,0.02,1.00,3.23,-5.00,-3.85
1777056658664,567405,0.01,0.02,1.00,3.11,-4.82,-3.85
1777056658664,567415,0.01,0.01,1.00,3.05,-4.82,-3.85
1777056658664,567425,0.01,0.01,1.00,3.23,-4.88,-3.85
1777056658664,567435,0.01,0.01,1.00,3.36,-4.94,-3.78
1777056658664,567445,0.01,0.01,1.00,3.30,-5.00,-3.78
1777056658664,567455,0.01,0.01,1.00,3.17,-4.94,-3.78
1777056658664,567465,0.01,0.01,1.00,3.11,-5.00,-3.85
1777056658664,567475,0.01,0.01,1.00,2.87,-4.88,-3.85
1777056658664,567485,0.01,0.01,1.00,3.11,-4.88,-3.78
1777056658664,567495,0.01,0.01,1.00,3.17,-4.88,-3.85
1777056658664,567505,0.01,0.01,1.00,3.23,-5.00,-3.85
1777056658665,567515,0.01,0.01,1.00,3.23,-5.00,-3.78
1777056658665,567525,0.01,0.01,1.00,3.23,-4.94,-3.78
1777056658665,567535,0.01,0.01,1.00,3.23,-4.94,-3.85
1777056658665,567545,0.01,0.01,1.00,3.30,-4.94,-3.85
1777056658665,567555,0.01,0.01,1.00,3.36,-4.94,-3.78
1777056658665,567565,0.01,0.01,1.00,3.30,-4.94,-3.78
1777056658665,567575,0.02,0.02,1.00,3.30,-5.00,-3.85
1777056658665,567585,0.01,0.02,1.00,3.30,-4.94,-3.85
1777056658665,567595,0.01,0.02,1.00,3.30,-4.94,-3.78
1777056658666,567605,0.01,0.01,1.00,3.42,-4.76,-3.78
1777056658666,567615,0.01,0.01,1.01,3.48,-4.88,-3.78
1777056658666,567625,0.01,0.01,1.01,3.30,-4.94,-3.78
1777056658666,567635,0.01,0.01,1.00,3.11,-5.00,-3.91
1777056658666,567645,0.01,0.01,1.00,3.05,-4.94,-3.85
1777056658666,567655,0.01,0.01,1.00,3.05,-4.94,-3.91
1777056658666,567665,0.01,0.02,1.00,3.17,-4.88,-3.91
1777056658666,567675,0.01,0.01,1.00,3.23,-5.00,-3.78
1777056658666,567685,0.01,0.01,1.00,3.11,-4.94,-3.85
1777056658666,567695,0.01,0.01,1.00,3.05,-4.88,-3.78
1777056658667,567705,0.01,0.01,1.00,3.17,-4.88,-3.78
1777056658668,567715,0.01,0.02,1.00,3.17,-4.88,-3.85
1777056658678,567725,0.01,0.01,1.00,3.17,-4.88,-3.78
1777056658688,567735,0.01,0.01,1.00,3.17,-4.88,-3.78
1777056658698,567745,0.01,0.01,1.00,3.05,-4.94,-3.85
1777056658718,567765,0.01,0.01,1.00,2.93,-4.94,-3.97
1777056658738,567785,0.01,0.01,1.00,2.99,-4.82,-3.85
1777056658758,567805,0.01,0.01,1.00,3.17,-4.88,-3.85
1777056658778,567825,0.01,0.01,1.00,3.30,-4.88,-3.85
1777056658798,567845,0.01,0.01,1.00,2.87,-5.00,-3.85
1777056658818,567865,0.01,0.01,1.00,3.11,-4.88,-3.97
1777056658838,567885,0.01,0.01,1.00,2.87,-4.94,-3.91
1777056658858,567905,0.01,0.01,1.00,2.87,-4.94,-3.91
1777056658878,567925,0.01,0.01,1.00,3.17,-5.00,-3.85
1777056658898,567945,0.01,0.01,1.00,2.87,-4.88,-3.85
1777056658918,567965,0.01,0.01,1.00,3.30,-4.88,-3.85
1777056658967,567985,0.01,0.01,1.00,2.87,-4.94,-3.85
1777056658968,568005,0.01,0.01,1.00,2.93,-4.88,-3.91
1777056658978,568025,0.01,0.01,1.00,3.23,-4.94,-3.85
1777056658998,568045,0.01,0.01,1.00,3.23,-4.94,-3.85
1777056659018,568065,0.01,0.02,1.00,3.54,-4.88,-3.72
1777056659038,568085,0.01,0.02,1.00,3.48,-5.00,-3.78
1777056659058,568105,0.01,0.01,1.00,3.36,-4.94,-3.78
1777056659078,568125,0.01,0.02,1.00,3.54,-5.00,-3.78
1777056659103,568145,0.01,0.01,1.00,3.23,-4.88,-3.91
1777056659118,568165,0.01,0.01,1.00,3.42,-4.94,-3.78
1777056659138,568185,0.01,0.01,1.00,3.11,-4.94,-3.85
1777056659158,568205,0.01,0.01,1.00,2.87,-4.88,-3.91
1777056659178,568225,0.01,0.01,1.00,3.30,-4.88,-3.91
1777056659188,568235,0.01,0.01,1.00,3.17,-4.88,-3.91
1777056659198,568245,0.01,0.01,1.00,3.11,-5.00,-3.91
1777056659208,568255,0.01,0.01,1.00,3.17,-5.00,-3.91
1777056659218,568265,0.01,0.01,1.00,3.30,-5.00,-3.85
1777056659228,568275,0.01,0.02,1.00,3.36,-5.00,-3.72
1777056659238,568285,0.01,0.02,1.00,3.48,-5.07,-3.78
1777056659248,568295,0.01,0.02,1.00,3.42,-4.94,-3.78
1777056659258,568305,0.01,0.02,1.00,3.42,-4.94,-3.78
1777056659268,568315,0.01,0.01,1.00,3.36,-4.94,-3.85
1777056659278,568325,0.01,0.01,1.00,3.36,-5.00,-3.78
1777056659288,568335,0.01,0.01,1.00,3.36,-5.07,-3.85
1777056659298,568345,0.01,0.02,1.00,3.48,-5.00,-3.72
1777056659308,568355,0.02,0.02,1.00,3.42,-5.13,-3.78
1777056659318,568365,0.01,0.02,1.00,3.42,-5.13,-3.78
1777056659328,568375,0.01,0.01,1.00,3.23,-4.94,-3.78
1777056659338,568385,0.01,0.01,1.00,2.87,-4.82,-3.91
1777056659348,568395,0.01,0.01,1.00,2.93,-4.88,-3.91
1777056659360,568405,0.01,0.01,1.00,3.05,-4.88,-3.78
1777056659370,568415,0.01,0.01,1.00,2.87,-4.88,-3.85
1777056659378,568425,0.01,0.01,1.00,2.75,-4.88,-3.91
1777056659388,568435,0.01,0.01,1.00,3.05,-4.94,-3.91
1777056659398,568445,0.01,0.02,1.00,3.48,-5.13,-3.78
1777056659408,568455,0.01,0.01,1.00,3.42,-5.00,-3.78
1777056659418,568465,0.01,0.01,1.00,3.36,-5.00,-3.78
1777056659428,568475,0.01,0.01,1.00,3.17,-4.94,-3.91
1777056659438,568485,0.01,0.01,1.00,2.93,-4.88,-3.78
1777056659448,568495,0.01,0.01,1.00,3.11,-4.94,-3.78
1777056659458,568505,0.01,0.01,1.00,3.30,-5.00,-3.78
1777056659468,568515,0.01,0.01,1.00,3.17,-5.07,-3.72
1777056659478,568525,0.01,0.01,1.00,2.99,-4.94,-3.85
1777056659488,568535,0.01,0.01,1.00,3.05,-4.94,-3.72
1777056659498,568545,0.01,0.01,1.00,3.11,-4.94,-3.78
1777056659508,568555,0.01,0.01,1.00,2.99,-4.94,-3.85
1777056659518,568565,0.01,0.01,1.00,2.81,-4.94,-3.97
1777056659528,568575,0.01,0.01,1.00,2.99,-4.94,-3.91
1777056659538,568585,0.01,0.01,1.00,3.11,-4.88,-3.85
1777056659548,568595,0.01,0.01,1.00,2.99,-4.88,-3.85
1777056659558,568605,0.01,0.01,1.00,2.87,-4.88,-3.91
1777056659568,568615,0.01,0.01,1.00,2.99,-4.94,-3.85
1777056659578,568625,0.01,0.01,1.00,3.23,-5.00,-3.85
1777056659588,568635,0.01,0.01,1.00,3.17,-4.82,-3.91
1777056659598,568645,0.01,0.01,1.00,3.05,-4.82,-3.91
1777056659608,568655,0.01,0.01,1.00,2.99,-4.94,-3.91
1777056659618,568665,0.01,0.01,1.00,3.05,-4.94,-3.85
1777056659628,568675,0.01,0.01,1.00,3.23,-5.00,-3.85
1777056659638,568685,0.02,0.02,1.00,3.36,-4.94,-3.85
1777056659648,568695,0.01,0.01,1.00,3.42,-4.94,-3.91
1777056659658,568705,0.01,0.01,1.00,3.36,-5.00,-3.85
1777056659668,568715,0.01,0.02,1.00,3.36,-5.07,-3.72
1777056659678,568725,0.01,0.02,1.00,3.36,-5.00,-3.78
1777056659688,568735,0.01,0.01,1.00,3.30,-4.94,-3.78
1777056659699,568745,0.01,0.01,1.00,3.23,-5.00,-3.72
1777056659708,568755,0.01,0.01,1.00,3.17,-4.94,-3.78
1777056659718,568765,0.01,0.01,1.00,3.17,-5.00,-3.78
1777056659728,568775,0.01,0.01,1.00,3.30,-5.00,-3.78
1777056659738,568785,0.01,0.01,1.00,3.36,-4.94,-3.78
1777056659748,568795,0.01,0.01,1.00,3.36,-5.00,-3.78
1777056659758,568805,0.01,0.01,1.00,3.36,-5.07,-3.85
1777056659768,568815,0.01,0.01,1.00,3.42,-4.94,-3.78
1777056659778,568825,0.01,0.02,1.00,3.54,-5.00,-3.72
1777056659788,568835,0.01,0.01,1.00,3.17,-4.94,-3.85
1777056659798,568845,0.01,0.01,1.00,2.87,-4.88,-3.91
1777056659808,568855,0.01,0.01,1.00,3.17,-4.94,-3.85
1777056659818,568865,0.01,0.01,1.00,3.54,-5.00,-3.72
1777056659828,568875,0.01,0.01,1.00,3.17,-4.94,-3.78
1777056659838,568885,0.01,0.01,1.00,2.87,-4.88,-3.85
1777056659848,568895,0.01,0.01,1.00,3.11,-5.00,-3.85
1777056659858,568905,0.01,0.01,1.00,3.30,-5.00,-3.78
1777056659868,568915,0.01,0.01,1.00,3.36,-4.82,-3.78
1777056659878,568925,0.01,0.02,1.00,3.48,-5.00,-3.78
1777056659888,568935,0.02,0.02,1.00,3.54,-5.07,-3.78
1777056659898,568945,0.01,0.01,1.00,3.48,-5.00,-3.78
1777056659908,568955,0.01,0.02,1.00,3.54,-5.00,-3.72
1777056659918,568965,0.01,0.02,1.00,3.54,-4.94,-3.78
1777056659928,568975,0.01,0.01,1.00,3.36,-5.00,-3.85
1777056659938,568985,0.01,0.01,1.00,3.17,-5.00,-3.85
1777056659948,568995,0.01,0.01,1.00,3.11,-5.00,-3.85
1777056659958,569005,0.01,0.01,1.00,2.81,-4.94,-3.85
1777056659968,569015,0.01,0.01,1.00,3.11,-5.00,-3.85
1777056659978,569025,0.01,0.01,1.00,3.23,-5.00,-3.91
1777056659988,569035,0.01,0.01,1.00,3.30,-4.88,-3.91
1777056659998,569045,0.02,0.01,1.00,3.42,-5.00,-3.78
1777056660008,569055,0.01,0.01,1.00,3.30,-4.94,-3.85
1777056660018,569065,0.01,0.01,1.00,3.05,-4.88,-3.85
1777056660028,569075,0.01,0.01,1.00,3.05,-4.88,-3.85
1777056660038,569085,0.01,0.01,1.00,2.99,-4.82,-3.85
1777056660048,569095,0.01,0.01,1.00,3.05,-4.88,-3.85
1777056660058,569105,0.01,0.01,1.00,2.99,-4.88,-3.91
1777056660068,569115,0.01,0.01,1.00,2.93,-4.94,-3.85
1777056660078,569125,0.01,0.01,1.00,2.93,-4.82,-3.85
1777056660088,569135,0.01,0.01,1.00,3.11,-4.88,-3.85
1777056660098,569145,0.01,0.02,1.00,3.54,-4.94,-3.72
1777056660108,569155,0.01,0.01,1.00,3.48,-5.13,-3.78
1777056660118,569165,0.01,0.01,1.00,3.30,-5.07,-3.78
1777056660128,569175,0.01,0.01,1.00,3.23,-4.94,-3.78
1777056660138,569185,0.01,0.01,1.00,3.05,-4.88,-3.78
1777056660148,569195,0.01,0.01,1.00,2.99,-4.88,-3.78
1777056660158,569205,0.01,0.01,1.00,2.93,-4.88,-3.85
1777056660168,569215,0.01,0.01,1.00,2.99,-4.94,-3.85
1777056660178,569225,0.01,0.01,1.00,3.11,-4.94,-3.85
1777056660188,569235,0.01,0.01,1.00,3.23,-4.94,-3.85
1777056660198,569245,0.01,0.01,1.00,3.30,-4.94,-3.78
1777056660208,569255,0.01,0.01,1.00,3.23,-4.94,-3.78
1777056660218,569265,0.01,0.01,1.00,3.11,-4.94,-3.78
1777056660228,569275,0.01,0.01,1.00,3.05,-4.94,-3.85
1777056660238,569285,0.01,0.01,1.00,2.93,-4.82,-3.91
1777056660248,569295,0.01,0.01,1.00,2.99,-4.88,-3.85
1777056660258,569305,0.01,0.01,1.00,3.11,-4.88,-3.78
1777056660268,569315,0.01,0.01,1.00,3.11,-4.94,-3.85
1777056660278,569325,0.01,0.01,1.00,3.17,-5.00,-3.85
1777056660288,569335,0.01,0.01,1.00,3.23,-4.88,-3.85
1777056660298,569345,0.01,0.01,1.00,3.23,-5.00,-3.78
1777056660308,569355,0.01,0.01,1.00,3.30,-4.94,-3.85
1777056660318,569365,0.01,0.01,1.00,3.36,-5.00,-3.85
1777056660328,569375,0.01,0.01,1.00,3.36,-5.07,-3.78
1777056660338,569385,0.01,0.01,1.00,3.23,-4.94,-3.85
1777056660348,569395,0.01,0.01,1.00,3.30,-5.00,-3.78
1777056660358,569405,0.01,0.01,1.00,3.42,-5.00,-3.78
1777056660368,569415,0.01,0.01,1.00,3.30,-4.94,-3.85
1777056660378,569425,0.01,0.01,1.00,2.93,-4.76,-3.91
1777056660388,569435,0.01,0.01,1.00,2.99,-4.82,-3.85
1777056660398,569445,0.01,0.01,1.00,3.05,-4.94,-3.85
1777056660408,569455,0.01,0.01,1.00,2.99,-4.94,-3.91
1777056660418,569465,0.01,0.01,1.00,2.87,-4.88,-3.85
1777056660428,569475,0.01,0.01,1.00,3.05,-4.94,-3.85
1777056660438,569485,0.01,0.01,1.00,3.30,-5.00,-3.91
1777056660448,569495,0.01,0.01,1.00,3.36,-5.07,-3.78
1777056660458,569505,0.01,0.01,1.00,3.48,-4.94,-3.85
1777056660468,569515,0.01,0.01,1.00,3.23,-4.94,-3.85
1777056660478,569525,0.01,0.01,1.00,3.11,-4.94,-3.85
1777056660488,569535,0.01,0.01,1.00,3.17,-4.94,-3.91
1777056660498,569545,0.01,0.01,1.00,3.30,-5.00,-3.78
1777056660508,569555,0.01,0.01,1.00,3.11,-4.94,-3.91
1777056660518,569565,0.01,0.01,1.00,2.99,-4.88,-3.91
1777056660528,569575,0.01,0.01,1.00,3.05,-4.88,-3.85
1777056660538,569585,0.01,0.01,1.00,3.36,-5.00,-3.85
1777056660548,569595,0.01,0.01,1.00,3.30,-5.00,-3.85
1777056660558,569605,0.01,0.01,1.00,3.17,-4.94,-3.85
1777056660568,569615,0.01,0.01,1.00,3.17,-5.00,-3.85
1777056660578,569625,0.01,0.01,1.00,3.23,-4.94,-3.85
1777056660588,569635,0.01,0.01,1.00,3.11,-4.88,-3.85
1777056660598,569645,0.01,0.01,1.00,2.99,-4.88,-3.91
1777056660608,569655,0.01,0.01,1.00,2.93,-4.82,-3.97
1777056660618,569665,0.01,0.01,1.00,2.99,-4.94,-3.91
1777056660628,569675,0.01,0.01,1.00,2.93,-4.94,-3.97
1777056660638,569685,0.01,0.01,1.00,3.05,-5.00,-3.85
1777056660648,569695,0.01,0.01,1.00,3.05,-4.88,-3.85
1777056660658,569705,0.01,0.01,1.00,2.99,-4.88,-3.91
1777056660668,569715,0.01,0.01,1.00,2.93,-4.88,-3.91
1777056660678,569725,0.01,0.01,1.00,2.81,-4.88,-3.85
1777056660688,569735,0.01,0.01,1.00,3.05,-4.94,-3.97
1777056660698,569745,0.01,0.01,1.00,3.30,-4.94,-3.85
1777056660708,569755,0.01,0.01,1.00,3.05,-4.88,-3.85
1777056660718,569765,0.01,0.01,1.00,2.87,-4.94,-3.85
1777056660728,569775,0.01,0.01,1.00,3.05,-4.94,-3.78
1777056660738,569785,0.01,0.01,1.00,3.30,-4.94,-3.78
1777056660748,569795,0.01,0.01,1.00,3.30,-5.00,-3.91
1777056660758,569805,0.01,0.01,1.00,3.23,-4.82,-3.78
1777056660768,569815,0.01,0.01,1.00,3.17,-4.82,-3.85
1777056660778,569825,0.01,0.01,1.00,3.05,-4.88,-3.85
1777056660788,569835,0.01,0.01,1.00,3.05,-5.00,-3.85
1777056660798,569845,0.01,0.01,1.00,3.23,-4.94,-3.72
1777056660808,569855,0.01,0.01,1.00,3.05,-4.82,-3.78
1777056660818,569865,0.01,0.01,1.00,3.05,-4.94,-3.85
1777056660828,569875,0.01,0.01,1.00,3.23,-5.00,-3.78
1777056660838,569885,0.01,0.01,1.00,3.42,-5.00,-3.72
1777056660848,569895,0.01,0.01,1.00,3.23,-4.94,-3.78
1777056660858,569905,0.01,0.01,1.00,3.23,-4.94,-3.78
1777056660868,569915,0.01,0.01,1.00,3.17,-4.94,-3.85
1777056660878,569925,0.01,0.01,1.00,3.23,-4.94,-3.91
1777056660888,569935,0.01,0.01,1.00,3.30,-4.94,-3.91
1777056660898,569945,0.01,0.01,1.00,3.23,-4.94,-3.78
1777056660908,569955,0.01,0.01,1.00,3.36,-4.94,-3.85
1777056660928,569975,0.01,0.02,1.00,3.48,-5.07,-3.78
1777056660948,569995,0.01,0.01,1.00,3.11,-4.94,-3.91
1777056660968,570015,0.01,0.01,1.00,3.05,-5.00,-3.78
1777056660988,570035,0.01,0.01,1.00,3.42,-5.00,-3.78
1777056661008,570055,0.01,0.01,1.00,3.17,-4.94,-3.78
1777056661028,570075,0.01,0.01,1.00,3.36,-5.00,-3.78
1777056661048,570095,0.01,0.01,1.00,2.93,-4.76,-3.78
1777056661068,570115,0.01,0.01,1.00,2.99,-4.94,-3.85
1777056661088,570135,0.01,0.01,1.00,3.42,-5.07,-3.78
1777056661108,570155,0.01,0.01,1.00,3.05,-4.88,-3.85
1777056661128,570175,0.01,0.01,1.00,3.36,-4.94,-3.78
1777056661148,570195,0.01,0.01,1.00,3.30,-4.94,-3.85
1777056661168,570215,0.01,0.01,1.00,2.87,-4.88,-3.91
1777056661188,570235,0.01,0.01,1.00,3.36,-4.94,-3.85
1777056661208,570255,0.01,0.01,1.00,3.23,-4.94,-3.78
1777056661228,570275,0.01,0.01,1.00,2.93,-4.94,-3.91
1777056661248,570295,0.01,0.01,1.00,3.05,-4.88,-3.85
1777056661268,570315,0.01,0.01,1.00,2.87,-4.94,-3.85
1777056661288,570335,0.01,0.01,1.00,3.36,-4.94,-3.78
1777056661308,570355,0.01,0.01,1.00,2.93,-4.82,-3.91
1777056661328,570375,0.01,0.01,1.00,2.81,-4.94,-3.85
1777056661348,570395,0.01,0.01,1.00,3.48,-5.07,-3.78
1777056661368,570415,0.01,0.01,1.00,3.36,-5.00,-3.85
1777056661388,570435,0.01,0.01,1.00,3.48,-5.00,-3.78
1777056661398,570445,0.01,0.01,1.00,3.23,-5.00,-3.78
1777056661408,570455,0.01,0.01,1.00,3.05,-4.94,-3.91
1777056661418,570465,0.01,0.01,1.00,3.17,-4.94,-3.91
1777056661428,570475,0.01,0.01,1.00,3.42,-5.00,-3.85
1777056661438,570485,0.01,0.01,1.00,3.23,-5.00,-3.85
1777056661448,570495,0.01,0.01,1.00,2.87,-4.94,-3.78
1777056661458,570505,0.01,0.01,1.00,3.05,-4.94,-3.78
1777056661468,570515,0.01,0.01,1.00,3.23,-4.94,-3.78
1777056661478,570525,0.01,0.01,1.00,3.23,-4.94,-3.85
1777056661488,570535,0.01,0.01,1.00,3.17,-4.88,-3.78
1777056661498,570545,0.01,0.01,1.00,3.30,-4.94,-3.85
1777056661508,570555,0.01,0.01,1.00,3.36,-4.94,-3.85
1777056661518,570565,0.01,0.01,1.00,3.36,-4.94,-3.85
1777056661528,570575,0.01,0.01,1.00,3.11,-4.88,-3.78
1777056661538,570585,0.01,0.01,1.00,3.23,-4.94,-3.78
1777056661548,570595,0.01,0.01,1.00,3.23,-5.00,-3.78
1777056661558,570605,0.01,0.01,1.00,3.23,-4.94,-3.85
1777056661568,570615,0.01,0.01,1.00,3.05,-4.88,-3.91
1777056661578,570625,0.01,0.01,1.00,3.11,-4.94,-3.85
1777056661588,570635,0.01,0.01,1.00,3.23,-4.88,-3.78
1777056661598,570645,0.01,0.01,1.00,3.30,-4.94,-3.78
1777056661608,570655,0.01,0.01,1.00,3.36,-4.94,-3.78
1777056661618,570665,0.01,0.01,1.00,3.36,-5.00,-3.91
1777056661628,570675,0.01,0.01,1.00,3.17,-4.94,-3.85
1777056661638,570685,0.01,0.01,1.00,3.11,-4.94,-3.85
1777056661648,570695,0.01,0.01,1.00,3.17,-4.94,-3.85
1777056661658,570705,0.01,0.01,1.00,3.05,-4.94,-3.91
1777056661668,570715,0.01,0.01,1.00,2.99,-4.94,-3.91
1777056661678,570725,0.01,0.01,1.00,3.05,-4.82,-3.91
1777056661688,570735,0.01,0.01,1.00,3.05,-4.88,-3.78
1777056661698,570745,0.01,0.01,1.00,2.93,-4.88,-3.85
1777056661708,570755,0.01,0.01,1.00,2.93,-4.82,-3.91
1777056661718,570765,0.01,0.01,1.00,2.87,-4.88,-3.91
1777056661728,570775,0.01,0.01,1.00,2.81,-4.88,-3.85
1777056661738,570785,0.01,0.01,1.00,2.87,-4.88,-3.85
1777056661748,570795,0.01,0.01,1.00,2.99,-4.88,-3.91
1777056661758,570805,0.01,0.01,1.00,3.05,-4.94,-3.91
1777056661768,570815,0.01,0.01,1.00,3.05,-4.94,-3.91
1777056661778,570825,0.01,0.01,1.00,2.93,-4.88,-3.78
1777056661788,570835,0.01,0.01,1.00,2.99,-4.82,-3.85
1777056661798,570845,0.01,0.01,1.00,2.93,-4.88,-3.85
1777056661808,570855,0.01,0.01,1.00,3.05,-4.88,-3.91
1777056661818,570865,0.01,0.01,1.00,2.99,-4.88,-3.97
1777056661828,570875,0.01,0.01,1.00,2.81,-4.88,-3.85
1777056661838,570885,0.01,0.01,1.00,2.93,-4.88,-3.91
1777056661848,570895,0.01,0.01,1.00,2.99,-4.82,-3.85
1777056661858,570905,0.01,0.01,1.00,3.17,-4.88,-3.91
1777056661868,570915,0.01,0.01,1.00,3.30,-4.94,-3.85
1777056661878,570925,0.01,0.01,1.00,3.17,-4.88,-3.91
1777056661888,570935,0.01,0.01,1.00,2.87,-4.94,-3.91
1777056661898,570945,0.01,0.01,1.00,2.81,-4.88,-3.85
1777056661908,570955,0.01,0.01,1.00,3.05,-4.94,-3.91
1777056661918,570965,0.01,0.01,1.00,3.17,-4.94,-3.85
1777056661928,570975,0.01,0.01,1.00,3.48,-5.07,-3.78
1777056661938,570985,0.01,0.01,1.00,3.17,-4.88,-3.85
1777056661948,570995,0.01,0.01,1.00,2.87,-4.82,-3.85
1777056661958,571005,0.01,0.01,1.00,2.87,-4.76,-3.91
1777056661968,571015,0.01,0.01,1.00,2.99,-4.88,-3.85
1777056661978,571025,0.01,0.01,1.00,3.17,-4.88,-3.78
1777056661988,571035,0.01,0.02,1.00,3.42,-5.00,-3.78
1777056661998,571045,0.01,0.01,1.00,3.36,-5.00,-3.85
1777056662008,571055,0.01,0.01,1.00,3.11,-4.94,-3.85
1777056662018,571065,0.01,0.01,1.00,3.30,-4.94,-3.78
1777056662028,571075,0.01,0.01,1.00,3.30,-4.88,-3.78
1777056662038,571085,0.02,0.01,1.00,3.48,-5.00,-3.78
1777056662048,571095,0.01,0.01,1.00,3.54,-5.13,-3.85
1777056662058,571105,0.01,0.02,1.00,3.42,-5.00,-3.78
1777056662068,571115,0.01,0.01,1.00,3.48,-5.07,-3.78
1777056662078,571125,0.01,0.01,1.00,3.11,-5.00,-3.91
1777056662088,571135,0.01,0.01,1.00,2.81,-4.82,-3.85
1777056662098,571145,0.01,0.01,1.00,2.87,-4.82,-3.78
1777056662108,571155,0.01,0.01,1.00,2.93,-4.94,-3.85
1777056662118,571165,0.01,0.01,1.00,3.05,-4.94,-3.85
1777056662128,571175,0.01,0.01,1.00,3.23,-4.94,-3.85
1777056662138,571185,0.01,0.01,1.00,3.11,-5.00,-3.91
1777056662148,571195,0.01,0.01,1.00,2.87,-4.88,-3.91
1777056662158,571205,0.01,0.01,1.00,3.11,-4.94,-3.85
1777056662168,571215,0.01,0.01,1.00,3.48,-4.94,-3.78
1777056662178,571225,0.01,0.01,1.00,3.23,-4.94,-3.78
1777056662188,571235,0.01,0.01,1.00,2.87,-4.88,-3.85
1777056662198,571245,0.01,0.01,1.00,3.05,-4.88,-3.85
1777056662208,571255,0.02,0.01,1.00,3.48,-5.00,-3.72
1777056662218,571265,0.01,0.01,1.00,3.36,-5.00,-3.72
1777056662228,571275,0.01,0.01,1.00,3.17,-4.94,-3.85
1777056662238,571285,0.01,0.01,1.00,3.30,-4.94,-3.85
1777056662248,571295,0.01,0.01,1.00,3.42,-5.00,-3.78
1777056662258,571305,0.01,0.01,1.00,3.48,-4.94,-3.78
1777056662268,571315,0.01,0.02,1.00,3.42,-4.94,-3.78
1777056662278,571325,0.01,0.01,1.00,3.30,-5.07,-3.78
1777056662288,571335,0.01,0.01,1.00,2.93,-4.88,-3.78
1777056662298,571345,0.01,0.02,1.00,3.17,-4.88,-3.85
1777056662308,571355,0.02,0.01,1.00,3.42,-5.00,-3.72
1777056662318,571365,0.01,0.01,1.00,3.36,-4.94,-3.72
1777056662328,571375,0.01,0.01,1.00,3.30,-5.00,-3.85
1777056662338,571385,0.01,0.01,1.00,3.23,-5.00,-3.85
1777056662348,571395,0.01,0.01,1.00,3.30,-5.07,-3.85
1777056662358,571405,0.01,0.01,1.00,3.36,-4.94,-3.78
1777056662368,571415,0.01,0.01,1.00,3.48,-4.88,-3.78
1777056662378,571425,0.01,0.02,1.00,3.30,-4.94,-3.91
1777056662388,571435,0.01,0.02,1.00,3.30,-5.00,-3.85
1777056662398,571445,0.01,0.01,1.00,3.30,-5.07,-3.85
1777056662408,571455,0.01,0.01,1.00,3.17,-4.88,-3.85
1777056662418,571465,0.01,0.01,1.00,3.17,-4.88,-3.85
1777056662428,571475,0.01,0.01,1.00,2.99,-5.00,-3.85
1777056662438,571485,0.01,0.01,1.00,2.93,-4.88,-3.85
1777056662448,571495,0.01,0.01,1.00,2.87,-4.82,-3.91
1777056662458,571505,0.01,0.01,1.00,3.11,-5.00,-3.85
1777056662468,571515,0.01,0.02,1.00,3.48,-5.13,-3.78
1777056662478,571525,0.01,0.01,1.00,3.11,-4.94,-3.85
1777056662488,571535,0.01,0.01,1.00,2.81,-4.88,-3.91
1777056662498,571545,0.01,0.01,1.00,2.93,-4.82,-3.85
1777056662508,571555,0.01,0.02,1.00,3.17,-5.00,-3.85
1777056662518,571565,0.01,0.01,1.00,3.23,-5.00,-3.78
1777056662528,571575,0.01,0.01,1.00,3.30,-4.94,-3.85
1777056662538,571585,0.01,0.01,1.00,3.36,-4.94,-3.85
1777056662548,571595,0.01,0.01,1.00,3.23,-4.88,-3.85
1777056662558,571605,0.01,0.01,1.00,3.05,-4.88,-3.85
1777056662568,571615,0.01,0.01,1.00,2.87,-4.82,-3.85
1777056662578,571625,0.01,0.01,1.00,3.05,-5.00,-3.85
1777056662588,571635,0.01,0.01,1.00,3.48,-5.07,-3.78
1777056662598,571645,0.01,0.01,1.00,3.30,-4.94,-3.85
1777056662608,571655,0.01,0.01,1.00,3.05,-4.88,-3.78
1777056662618,571665,0.01,0.01,1.00,3.23,-5.00,-3.85
1777056662628,571675,0.01,0.01,1.00,3.17,-4.94,-3.85
1777056662638,571685,0.01,0.01,1.00,3.30,-4.94,-3.78
1777056662648,571695,0.01,0.01,1.00,3.48,-5.07,-3.72
1777056662658,571705,0.02,0.02,1.00,3.48,-5.13,-3.78
1777056662668,571715,0.01,0.01,1.00,3.36,-5.07,-3.78
1777056662678,571725,0.01,0.01,1.00,3.23,-5.07,-3.91
1777056662688,571735,0.01,0.01,1.00,2.99,-4.94,-3.91
1777056662698,571745,0.01,0.01,1.00,3.05,-4.88,-3.85
1777056662708,571755,0.01,0.01,1.00,3.17,-4.88,-3.85
1777056662718,571765,0.01,0.01,1.00,3.17,-4.94,-3.85
1777056662728,571775,0.01,0.01,1.00,3.23,-4.88,-3.85
1777056662738,571785,0.01,0.01,1.00,3.05,-4.94,-3.85
1777056662748,571795,0.01,0.01,1.00,2.81,-4.88,-3.91
1777056662758,571805,0.01,0.01,1.00,2.99,-4.88,-3.91
1777056662768,571815,0.01,0.01,1.00,3.30,-4.94,-3.85
1777056662778,571825,0.01,0.01,1.00,3.23,-4.94,-3.85
1777056662788,571835,0.01,0.01,1.00,3.05,-4.94,-3.72
1777056662798,571845,0.01,0.01,1.00,2.99,-4.82,-3.72
1777056662808,571855,0.01,0.01,1.00,2.93,-4.82,-3.78
1777056662818,571865,0.01,0.01,1.00,3.05,-4.94,-3.91
1777056662828,571875,0.01,0.01,1.00,3.23,-5.07,-3.85
1777056662838,571885,0.01,0.01,1.00,3.17,-4.82,-3.85
1777056662848,571895,0.01,0.01,1.00,3.11,-4.94,-3.85
1777056662858,571905,0.01,0.01,1.00,3.11,-4.88,-3.91
1777056662868,571915,0.01,0.01,1.00,3.11,-4.94,-3.91
1777056662878,571925,0.01,0.01,1.00,3.23,-4.94,-3.85
1777056662888,571935,0.01,0.01,1.00,3.42,-5.07,-3.72
1777056662898,571945,0.01,0.01,1.00,3.36,-5.07,-3.78
1777056662908,571955,0.01,0.01,1.00,3.11,-4.88,-3.85
1777056662918,571965,0.01,0.01,1.00,3.05,-4.88,-3.91
1777056662928,571975,0.01,0.01,1.00,2.93,-4.88,-3.91
1777056662938,571985,0.01,0.01,1.00,3.17,-4.88,-3.85
1777056662948,571995,0.01,0.02,1.00,3.42,-4.88,-3.78
1777056662958,572005,0.01,0.01,1.00,3.23,-5.00,-3.78
1777056662968,572015,0.01,0.01,1.00,2.87,-4.88,-3.78
1777056662978,572025,0.01,0.01,1.00,3.17,-4.88,-3.85
1777056662988,572035,0.01,0.01,1.00,3.42,-5.00,-3.85
1777056662998,572045,0.01,0.01,1.00,3.11,-4.88,-3.78
1777056663008,572055,0.01,0.01,1.00,2.87,-4.88,-3.85
1777056663018,572065,0.01,0.01,1.00,2.87,-4.94,-3.91
1777056663028,572075,0.01,0.01,1.00,2.93,-4.82,-3.85
1777056663038,572085,0.01,0.01,1.00,3.11,-4.94,-3.85
1777056663048,572095,0.01,0.02,1.00,3.23,-4.94,-3.78
1777056663058,572105,0.01,0.01,1.00,3.36,-5.00,-3.85
1777056663068,572115,0.01,0.01,1.00,3.36,-5.00,-3.78
1777056663078,572125,0.01,0.01,1.00,3.23,-4.94,-3.91
1777056663088,572135,0.01,0.01,1.00,3.05,-4.88,-3.85
1777056663098,572145,0.01,0.01,1.00,3.11,-4.82,-3.85
1777056663108,572155,0.01,0.01,1.00,3.23,-4.94,-3.78
1777056663118,572165,0.01,0.01,1.00,3.17,-4.88,-3.85
1777056663138,572185,0.01,0.01,1.00,3.36,-5.07,-3.78
1777056663158,572205,0.01,0.01,1.00,3.11,-4.88,-3.85
1777056663178,572225,0.01,0.01,1.00,3.11,-4.94,-3.85
1777056663198,572245,0.01,0.02,1.00,3.42,-5.00,-3.85
1777056663218,572265,0.01,0.01,1.00,3.17,-4.94,-3.85
1777056663238,572285,0.01,0.01,1.00,3.42,-5.00,-3.78
1777056663258,572305,0.01,0.01,1.00,3.42,-5.07,-3.85
1777056663278,572325,0.01,0.01,1.00,2.93,-4.94,-3.85
1777056663298,572345,0.01,0.01,1.00,3.23,-4.88,-3.78
1777056663318,572365,0.01,0.01,1.00,3.23,-5.07,-3.85
1777056663338,572385,0.01,0.01,1.00,2.75,-4.94,-3.91
1777056663358,572405,0.01,0.01,1.00,3.42,-5.00,-3.78
1777056663378,572425,0.01,0.01,1.00,2.87,-4.88,-3.85
1777056663398,572445,0.01,0.01,1.00,2.87,-4.94,-3.85
1777056663418,572465,0.01,0.01,1.00,3.36,-5.07,-3.72
1777056663438,572485,0.01,0.01,1.00,3.11,-4.82,-3.85
1777056663458,572505,0.01,0.01,1.00,3.36,-4.94,-3.85
1777056663478,572525,0.01,0.01,1.00,2.93,-4.88,-3.97
1777056663498,572545,0.01,0.01,1.00,3.11,-4.88,-3.85
1777056663518,572565,0.01,0.01,1.00,3.36,-4.94,-3.78
1777056663538,572585,0.01,0.01,1.00,3.05,-4.82,-3.85
1777056663558,572605,0.01,0.01,1.00,3.60,-5.07,-3.78
